Time (s),Accel_X,Accel_Y,Accel_Z,Gyro_X,Gyro_Y,Gyro_Z,Mag_X,Mag_Y,Mag_Z,Class
0,0.98,0.04,0.18,-0.49,-0.43,-1.28,36.73,37.11,18.3,RUN
0.001965046,0.99,0.05,0.18,-1.89,0.55,-0.73,36.28,37.21,18.54,RUN
0.002963543,0.98,0.05,0.18,-2.81,1.46,-0.73,36.36,36.85,19.02,RUN
0.002963543,0.98,0.05,0.17,-1.95,2.26,-0.37,36.89,37.26,18.95,RUN
0.00447154,0.99,0.05,0.17,-0.73,3.36,-0.67,36.41,37.44,18.84,RUN
0.005482435,0.99,0.06,0.16,-1.1,4.27,-0.92,35.74,37.37,20.09,RUN
0.006479979,0.98,0.06,0.14,2.81,-2.69,0.61,36.08,37.26,18.86,RUN
0.007479429,1,0.04,0.15,-2.32,1.71,0.18,36.25,36.82,19.98,RUN
0.008480787,0.97,0.06,0.14,-2.69,-5.37,-1.1,36.32,36.74,18.98,RUN
0.00948,0.99,0.04,0.15,-3.48,2.56,-0.37,37,36.91,19.46,RUN
0.00948,1.01,0.05,0.17,-1.89,0.06,-1.59,36.76,36.95,18.84,RUN
0.010480404,0.96,0.03,0.15,0.98,-0.79,-3.91,36.25,36.96,20.15,RUN
0.011500359,0.95,0.1,0.12,-3.36,15.75,-0.06,36.41,36.74,19.95,RUN
0.011500359,1.04,0.07,0.17,-15.08,-6.53,-5,36.01,37.19,20.21,RUN
0.012580156,0.96,0.16,0.15,-30.33,3.66,-7.75,35.93,37.74,17.53,RUN
0.01358366,1.11,0.03,0.17,-30.27,-7.08,-9.09,36.21,38.53,17.69,RUN
0.014573336,0.93,0.05,0.11,-31.49,3.36,-11.66,35.73,39.61,15.97,RUN
0.01557827,1,-0.03,0.15,-35.95,-0.55,-8.73,35.27,40.89,13.82,RUN
0.016574144,0.96,-0.05,0.11,-46.88,7.57,-15.01,35.18,41.26,11.07,RUN
0.016574144,1.01,-0.03,0.1,-50.54,11.17,-8.91,34.74,41.74,8.68,RUN
0.017572641,1.05,-0.15,0.04,-48.03,7.81,-9.28,34.45,41.33,6.64,RUN
0.018578529,0.98,-0.03,0.07,-11.66,-6.35,-7.57,33.94,41.97,4.69,RUN
0.019574881,0.98,-0.13,0.05,14.83,-15.99,-7.87,32.59,40.89,4.38,RUN
0.020576954,0.88,-0.1,0.12,3.54,-8.97,-1.83,32.21,42.57,4.33,RUN
0.021577358,1.06,-0.04,0.13,18.92,-3.11,-3.54,32.36,42.6,3.81,RUN
0.022578001,0.96,-0.15,0.13,-3.05,0.31,-5.86,32.34,43.47,4.68,RUN
0.022578001,1,-0.11,0.12,-5.19,-3.6,-2.62,31.7,43.68,4.33,RUN
0.023576021,1,-0.09,0.15,2.32,-3.48,-3.05,31.47,43.41,3.81,RUN
0.024577141,0.99,-0.11,0.14,9.09,-3.91,1.59,31.59,44.49,4.54,RUN
0.025815487,0.99,-0.15,0.13,-3.36,-8.36,0.79,31.52,44.18,4.31,RUN
0.026479959,0.97,-0.1,0.18,-5.19,-5.74,5.86,32.68,43.81,4.1,RUN
0.027478218,1,-0.06,0.21,1.65,-2.87,8.36,32.39,43.08,3.75,RUN
0.028478146,0.97,-0.06,0.18,2.69,-0.49,2.32,32.76,43.64,3.67,RUN
0.029479742,0.99,-0.06,0.18,1.34,1.1,0.12,32.97,43.42,4.71,RUN
0.030479431,0.99,-0.06,0.19,0.12,0.18,1.04,33.47,42.77,4.88,RUN
0.031480551,0.99,-0.06,0.17,-1.1,1.59,0.12,33.48,43.4,4.26,RUN
0.032480001,0.99,-0.06,0.17,-0.31,1.95,-0.55,33.52,42.55,5.16,RUN
0.034481049,0.98,-0.06,0.17,0.31,1.4,-1.89,33.28,42.38,4.16,RUN
0.034481049,0.99,-0.06,0.16,0.73,0.92,-1.71,33.18,43.12,4.48,RUN
0.036998034,0.98,-0.07,0.16,0.37,0.73,-1.28,32.6,42.14,4.11,RUN
0.037998199,0.98,-0.07,0.16,-0.61,-0.31,-0.55,33.07,41.96,3.48,RUN
0.03899765,1,-0.07,0.16,-0.06,-1.65,-0.24,33.34,42.81,4.33,RUN
0.041262865,0.99,-0.07,0.16,-1.1,0,-0.73,33.68,42,4.44,RUN
0.043007612,0.95,-0.08,0.16,-2.81,5.19,0.61,33.2,42.43,3.7,RUN
0.04410696,0.96,-0.13,0.11,-4.21,13.98,-2.38,33.25,42,2.87,RUN
0.045095444,1.06,-0.09,0.13,8.06,4.94,3.42,33.3,41.48,4.76,RUN
0.04609561,0.96,-0.1,0.07,32.71,1.95,21.3,33.59,41.46,6.87,RUN
0.04709816,1,-0.17,0.06,45.65,-8.61,15.87,34.7,40.12,9.17,RUN
0.048101664,1,-0.08,0.14,18.86,1.28,8.61,34.4,40.25,12.46,RUN
0.049101591,0.96,0.13,0.1,18.25,8.12,15.56,34.89,38.83,13.95,RUN
0.050092697,1,0.12,0.07,51.57,10.38,19.9,35.55,37.27,14.83,RUN
0.051697493,0.96,0.22,0.06,54.5,2.32,17.21,36.15,35.38,19.38,RUN
0.053806782,1.02,0.16,0.1,39.18,6.1,11.47,36.4,34.34,22.29,RUN
0.054804564,0.94,0.17,0.12,10.01,5.68,7.57,36.19,33.22,24.39,RUN
0.055808783,1.03,0.17,0.08,-16.66,-8.42,-1.65,36.85,32.65,23.78,RUN
0.057711124,0.98,0.23,0.03,-12.02,11.41,-10.07,36.08,33.81,23.17,RUN
0.059714794,0.99,0.12,0.03,5.25,14.16,9.58,36.65,32.89,24.02,RUN
0.060711622,1.03,0.11,0.03,-2.08,0.61,-2.44,36.58,33.17,24.29,RUN
0.062297344,0.94,0.16,0,-17.58,-7.32,-4.39,36.36,32.81,23.45,RUN
0.064426661,0.98,0.14,0.02,-14.89,12.51,5.86,36.13,33.15,24.32,RUN
0.065417528,0.98,0.11,0.07,-5.98,18.55,2.26,36.12,33.15,24.16,RUN
0.066418171,1.01,0.16,-0.05,-6.84,11.47,-4.33,35.83,33.68,25.26,RUN
0.068373919,0.96,0.11,-0.07,-11.6,13.73,-0.31,35.44,33.74,25.33,RUN
0.069420338,1,0.16,-0.13,-13.12,22.52,5.49,34.13,34.07,27.56,RUN
0.071424723,0.99,0.16,-0.21,-8.79,27.4,0.31,34.01,33.94,27.83,RUN
0.073319435,0.99,0.17,-0.25,-5.49,14.95,4.58,33.84,34.14,28.87,RUN
0.074317694,0.97,0.17,-0.27,-4.58,1.1,1.28,33.9,34.29,28.99,RUN
0.075320482,0.97,0.18,-0.3,-3.05,11.54,0.31,33.04,34.33,29.5,RUN
0.076318502,0.97,0.16,-0.3,-1.83,4.39,-1.71,33.28,33.81,30.7,RUN
0.078318119,0.96,0.16,-0.32,-3.78,6.16,0.18,32.8,34.31,31.47,RUN
0.079318047,0.95,0.15,-0.33,0.79,-2.32,-3.72,32.82,34.74,30.64,RUN
0.080318213,0.98,0.15,-0.3,5.68,-9.7,-0.37,32.63,34.34,31.43,RUN
0.081317902,0.98,0.17,-0.31,0.06,-13.67,-5.43,33.01,33.98,28.8,RUN
0.083317995,0.97,0.13,-0.25,-6.53,-16.3,-0.31,32.73,35.11,28.55,RUN
0.084318399,0.99,0.15,-0.22,-1.28,-20.87,-0.67,33.36,34.63,27.37,RUN
0.08531785,0.98,0.15,-0.18,0.12,-17.52,-0.18,34.38,35.07,26.71,RUN
0.08731699,0.98,0.16,-0.15,4.52,-10.74,2.14,35.38,34.44,23.85,RUN
0.088317156,0.97,0.17,-0.13,12.15,-6.96,4.21,35.18,34.12,24.67,RUN
0.089316607,0.95,0.11,-0.09,6.9,-4.88,-5.31,35.96,33.64,25.5,RUN
0.090317249,1.01,0.16,-0.04,16.42,-7.87,10.44,35.56,33.81,24.11,RUN
0.091316938,0.95,0.19,-0.04,18.31,-2.2,-5.92,35.56,32.69,24.38,RUN
0.092316628,1.01,0.16,-0.04,26.55,0.24,0,36.12,33.14,25.51,RUN
0.092316628,1,0.12,-0.02,16.42,-0.43,-6.04,36.16,32.26,26.17,RUN
0.093316555,1.01,0.12,-0.04,-4.21,-2.81,-3.91,36.36,32.87,26.42,RUN
0.094316006,1.02,0.1,-0.01,-6.35,-21.48,2.81,36.24,33.15,25.56,RUN
0.095317841,0.99,0.12,0,-7.57,-6.65,-1.1,36.52,33.01,25.06,RUN
0.096315861,0.96,0.12,0.02,-5.62,-8.3,0.43,36.95,33.29,24.28,RUN
0.096315861,0.97,0.18,0.02,9.46,-0.24,-2.32,36.28,33.72,24.06,RUN
0.097315788,1.09,0.2,0.05,2.01,1.53,-5.86,35.91,33.29,24.24,RUN
0.097315788,0.96,0.12,0.09,-18.68,-19.35,-15.93,36.24,34.41,24.82,RUN
0.098316193,1.03,0.17,0.1,-44.49,-12.7,-15.08,35.94,36.21,22.5,RUN
0.098316193,0.92,0.07,0.05,-42.24,-9.28,-16.48,35.16,37.71,18.93,RUN
0.099917889,0.99,0.05,0.1,-38.21,-2.14,-13.12,34.75,39.47,16.16,RUN
0.100825548,1,-0.03,0.11,-59.88,2.75,-13,33.78,40.31,14.07,RUN
0.100825548,0.97,-0.09,0,-68.36,12.94,-15.81,33.83,40.6,12.05,RUN
0.101825237,1.12,-0.07,0,-45.23,5.25,1.65,33.53,40.48,8.11,RUN
0.102824926,0.87,-0.08,0.01,-1.4,-11.72,-0.67,33.84,39.2,6.36,RUN
0.102824926,1.15,-0.02,0.1,-5.8,-8.61,-10.74,32.87,39.72,6.16,RUN
0.103824854,0.86,-0.07,0.03,2.08,-5.8,5.25,32.3,40.21,5.83,RUN
0.104825974,1.04,-0.05,0.06,-5.74,-2.81,7.32,32.95,39.42,5.59,RUN
0.105826855,0.99,-0.01,0.07,-12.76,-2.5,-1.46,33.64,38.62,5.41,RUN
0.105826855,0.99,-0.02,0.08,-2.14,-1.28,-0.85,33.91,38.35,5.04,RUN
0.106825352,1,-0.02,0.08,2.26,-1.4,-5.25,32.68,38.34,5.76,RUN
0.107825041,1,-0.02,0.08,6.59,-0.67,-2.81,32.73,38.88,4.49,RUN
0.107825041,1,-0.03,0.08,3.11,0.37,-1.83,32.96,39.39,5.14,RUN
0.108825207,1,-0.05,0.11,-1.53,3.05,-1.53,33.11,39.16,6.45,RUN
0.108825207,1.01,-0.02,0.06,-9.09,-1.77,-1.04,33.03,39.56,4.65,RUN
0.110408545,1.01,-0.02,0.07,-8.42,-1.71,2.69,32.9,39.53,4.66,RUN
0.110408545,1.01,-0.05,0.08,-6.47,-4.64,4.76,33.44,38.61,3.26,RUN
0.111332893,0.99,0.03,0.09,-11.23,-8.42,-2.26,33.09,37.93,4.41,RUN
0.112332582,0.99,0,0.12,-2.75,-5.92,1.95,32.6,37.76,3.8,RUN
0.112332582,0.98,0,0.12,-0.37,-3.05,1.04,32.47,38.01,2.66,RUN
0.113332987,0.99,0,0.13,-4.58,-0.06,0.49,33.03,38.02,2.87,RUN
0.113332987,1,0.01,0.13,-4.52,1.1,0.37,33.02,37.4,2.59,RUN
0.114332438,0.99,0.01,0.12,-4.03,2.01,-1.71,33.18,37.51,1.59,RUN
0.115332603,1,0.01,0.11,-3.91,3.23,-2.26,33.36,37.52,3.03,RUN
0.115332603,0.99,0.01,0.1,1.89,3.42,-1.65,32.87,37.71,2.7,RUN
0.116332293,1,0,0.08,3.72,-2.14,-0.49,33.81,37.96,3.32,RUN
0.116332293,0.99,-0.02,0.11,4.46,-7.93,3.11,33.08,37.34,2.75,RUN
0.11733222,1,0.05,0.11,10.62,-2.01,-0.85,32.76,38.07,2.32,RUN
0.118332386,1,0.02,0.1,14.77,-2.99,-2.56,33.01,38.34,2.78,RUN
0.118332386,0.99,-0.01,0.13,10.5,-0.79,0.24,33.06,39.1,3.19,RUN
0.119333029,0.99,-0.02,0.13,-0.24,-1.1,-0.12,33.37,39.06,3.05,RUN
0.119333029,0.99,0.01,0.14,-3.72,1.1,1.77,33.23,38.96,3.33,RUN
0.120836258,0.98,-0.02,0.12,-3.42,4.09,2.75,33.26,38.48,4.53,RUN
0.120836258,1.05,-0.01,0.12,5.92,6.96,4.39,33.94,38.27,4.93,RUN
0.121840477,0.98,0,0.12,24.48,-3.6,6.35,34.09,38.39,4.08,RUN
0.122840405,1.01,-0.03,0.11,46.69,-4.33,1.83,34.12,38.88,6.87,RUN
0.122840405,1.02,-0.11,0.14,59.2,-10.8,5.8,34.17,39.62,8.36,RUN
0.123840332,0.9,-0.1,0.11,44.19,-4.03,9.34,34.2,40.03,12.57,RUN
0.12484026,1,0,0.14,59.45,-14.65,16.72,33.9,39.56,12.52,RUN
0.12484026,0.95,0.14,0.23,67.32,-11.84,26.25,35.28,37.3,17.85,RUN
0.125840425,1.01,0.17,0.29,76.54,-8.61,17.94,36.38,35.13,18.99,RUN
0.125840425,0.95,0.14,0.32,66.22,-11.29,13.67,36.85,33.51,22.07,RUN
0.126840115,0.91,0.12,0.28,61.83,12.51,18.68,37.13,30.75,24.29,RUN
0.127840042,1.01,0.1,0.26,40.53,16.05,18.43,37.99,28.64,26.56,RUN
0.128840208,0.95,0.04,0.2,24.35,13.06,6.84,38.11,26.26,29.08,RUN
0.128840208,1,0.03,0.18,17.58,19.29,1.22,37.54,24.26,31.87,RUN
0.129840136,1,0.07,0.14,7.08,-0.85,-9.03,37.95,24.6,32.57,RUN
0.130840302,1.02,0.09,0.11,5.62,10.8,-7.45,37.67,25.54,31.74,RUN
0.130840302,0.98,-0.01,0.1,-2.2,11.47,-3.91,37.59,25.09,32.69,RUN
0.131840229,0.98,0.04,0.06,-1.04,-1.46,-1.04,37.05,26.11,32.91,RUN
0.132839918,1.01,-0.03,0.01,-0.98,3.97,8.61,37.21,25.44,34.69,RUN
0.132839918,1.02,-0.04,0.02,-7.63,-6.53,1.65,37.38,25.95,33.81,RUN
0.133839846,1.04,-0.03,0,1.77,1.65,-5.74,36.77,25.73,35.66,RUN
0.134840012,0.92,0.01,0.04,6.59,-2.08,-0.98,37.18,26,32.76,RUN
0.134840012,1.06,0.02,0.07,-7.51,0.98,-2.2,36.28,25.9,34.68,RUN
0.135840654,0.94,0.08,0.03,-3.36,-2.69,-0.85,35.88,26.4,33.47,RUN
0.13684082,0.94,0.08,0.09,26.31,-10.44,16.05,36.55,25.76,33.45,RUN
0.13684082,1.12,0,0.17,-6.65,-17.27,-6.53,36.78,23.75,33.96,RUN
0.137840509,0.96,0.02,0.21,-13.12,-19.59,-15.32,36.69,25.12,31.97,RUN
0.137840509,0.96,0.01,0.2,-11.17,-8.85,-6.47,37.33,27.14,30.09,RUN
0.138840437,0.97,0.03,0.2,-4.03,-2.26,0.85,37.33,27.28,29.9,RUN
0.139840603,0.98,0.01,0.24,7.2,-12.76,-0.37,37.55,27.34,29.69,RUN
0.139840603,0.97,0,0.26,-3.72,-5.25,-0.92,37.98,26.54,28.65,RUN
0.140840292,0.96,0.01,0.27,-0.18,0.98,-0.98,37.95,26.81,29.11,RUN
0.141840219,0.97,0,0.24,-2.62,2.08,-1.83,38.13,27.09,29.38,RUN
0.141840219,0.97,0.02,0.24,-5.62,6.84,-0.98,37.48,26.95,29.69,RUN
0.142840385,0.98,0.02,0.22,-3.78,-0.37,-0.37,37.78,27.39,30.14,RUN
0.142840385,0.98,0.02,0.2,-3.23,13.24,0.55,37.22,27.22,30.19,RUN
0.143840075,0.99,0,0.18,-0.12,1.95,-0.85,37.46,27.67,29.61,RUN
0.144840002,0.98,0.01,0.2,-2.62,5.37,-0.37,37.23,27.27,29.77,RUN
0.144840002,0.97,-0.01,0.22,-10.5,10.25,-4.39,37.29,27.27,30.48,RUN
0.145840168,0.94,0,0.19,-18.13,17.15,-4.82,35.83,28.59,30.36,RUN
0.146840334,1.03,0.02,0.2,-16.85,13,-1.89,36.22,29.24,30.73,RUN
0.146840334,0.94,0.05,0.15,-30.52,29.05,-1.04,35.61,30.04,31.57,RUN
0.147844076,1.02,0.08,0.05,-41.87,8.97,-3.42,34.73,30.93,31.54,RUN
0.148844004,1.07,0.03,-0.09,-64.03,26.92,-2.87,34.72,32.98,29.94,RUN
0.148844004,0.93,0,-0.07,-63.6,-6.23,2.14,34.14,34.94,29.85,RUN
0.149844408,0.93,0.01,-0.25,-61.65,-33.08,2.32,34.52,36.8,24.19,RUN
0.149844408,0.96,-0.08,0.05,-36.62,-29.85,-26.67,35.14,38.18,21.94,RUN
0.15099144,1.09,-0.13,0.09,-51.57,-13.37,-35.52,33.95,41.33,19.41,RUN
0.151941538,1.01,-0.19,0.05,-48.4,17.27,-28.75,31.75,43.47,16.06,RUN
0.152940273,1,-0.22,0.03,-57.07,15.26,-7.2,31.26,44.21,13.9,RUN
0.153950691,1.17,-0.11,0.12,-44.62,-5,-2.69,30.49,44.12,11.21,RUN
0.155952454,0.94,-0.09,-0.05,-43.03,-0.12,7.45,29.61,43.32,8.12,RUN
0.156950712,1.05,-0.08,0.05,-11.05,15.5,22.77,31.12,41.16,9.42,RUN
0.157949686,0.96,-0.06,-0.05,11.9,15.44,6.16,31.88,40.98,8.11,RUN
0.158958912,1.01,-0.05,-0.02,10.44,3.91,6.77,32.64,40.7,10.33,RUN
0.159961939,0.99,-0.04,-0.03,4.21,-2.81,4.39,32.85,39.84,10.68,RUN
0.161576748,1.01,-0.02,-0.02,2.44,-2.56,4.94,33.25,39.61,11.67,RUN
0.163309813,0.94,0.01,-0.05,-6.59,1.34,4.27,33.72,39,10.97,RUN
0.164421797,1.12,0.06,-0.04,-26.25,7.75,10.13,33.65,38.1,11.56,RUN
0.165427685,0.95,0.05,-0.01,-49.8,0.43,10.19,34.38,37.23,9.2,RUN
0.166427374,0.95,0.06,-0.05,-69.34,0.43,9.77,34.03,35.03,7.68,RUN
0.167420387,0.97,0.13,-0.15,-75.38,2.26,3.97,35.21,32.95,4.75,RUN
0.168421745,1,0.04,-0.14,-69.64,4.82,-5.98,35.18,30.51,1.16,RUN
0.168421745,1.02,0.05,-0.12,-50.23,1.83,-3.11,35.24,28.52,0.28,RUN
0.169317722,1,-0.03,-0.15,-44.49,-6.53,-7.02,35.49,26.57,-0.09,RUN
0.170419931,0.97,-0.04,-0.12,-33.02,-0.73,-5.86,35.07,25.59,-1.46,RUN
0.170419931,1.04,-0.05,-0.13,-26.79,-8.12,-10.19,35.05,25.13,-2.43,RUN
0.171413898,1.04,-0.07,-0.07,-22.83,-13.98,-9.7,34.41,25.16,-3.32,RUN
0.172332525,1,-0.09,-0.02,-19.9,-8.61,-7.87,33.34,24.29,-4.42,RUN
0.173370361,1,-0.09,0,-9.52,-6.47,2.32,33.75,24.34,-5.29,RUN
0.174316645,1,-0.07,-0.02,-1.59,-6.35,-2.56,33.5,23.85,-5.77,RUN
0.17541337,1,-0.08,-0.01,9.28,-5.37,-2.69,33,24.05,-6.12,RUN
0.17541337,1,-0.11,0,11.41,-1.95,-3.23,32.91,24.32,-6.03,RUN
0.176412106,1,-0.13,0.01,6.59,-1.71,-3.6,32.69,24.87,-6.4,RUN
0.177420378,1,-0.13,0,4.88,-2.26,-4.21,32.71,25.18,-6.34,RUN
0.177420378,0.93,-0.14,0.02,-2.14,1.46,-3.23,32.24,26.05,-5.96,RUN
0.178410769,1.02,-0.14,0.04,-1.77,-1.4,-2.26,32.41,26.21,-6.8,RUN
0.179411411,0.96,-0.13,0.04,-8.73,-26.61,0,30.55,25.56,-7.59,RUN
0.179411411,0.98,-0.13,0.11,-3.78,0.37,-2.5,29.92,25.5,-10.05,RUN
0.180432796,0.99,-0.13,0.14,-3.3,-14.59,0.49,29.92,24.96,-9.31,RUN
0.181411028,0.99,-0.13,0.17,-1.1,-14.16,1.46,28.55,25.48,-11.3,RUN
0.181411028,0.96,-0.12,0.2,-4.52,-26.25,2.99,27.47,25.29,-11.22,RUN
0.182956934,0.97,-0.11,0.25,-3.23,-17.09,4.39,24.69,24.5,-12.51,RUN
0.183417559,0.95,-0.1,0.32,-3.17,-26.31,5.19,22.42,24.72,-14.42,RUN
0.184419155,0.89,-0.08,0.31,2.14,20.51,-0.31,22.42,24.6,-14.66,RUN
0.185414553,0.91,-0.11,0.33,10.8,36.93,-0.85,24.84,24.1,-13.05,RUN
0.186411858,1,-0.12,0.21,6.1,60.49,-1.1,27.95,24.21,-11.08,RUN
0.188416481,0.97,-0.08,0.14,8,56.21,-0.79,30.71,24.07,-7.31,RUN
0.189411879,1.01,-0.06,-0.06,11.6,41.02,6.47,33.37,24.45,-6.32,RUN
0.190413475,1.01,-0.08,-0.09,26.25,8,1.71,34.33,25.51,-3.3,RUN
0.191413641,1.04,-0.07,-0.05,44.01,5,0.49,34.46,26.25,-1.2,RUN
0.193027258,0.96,-0.07,-0.14,42.05,-3.48,6.23,34.3,28.22,0.68,RUN
0.194133043,0.93,-0.1,-0.21,43.76,31.74,7.02,34.69,29.11,1.89,RUN
0.195135117,1.05,-0.09,-0.17,69.95,-2.01,11.84,35.67,30.41,5.53,RUN
0.196045876,1.04,0.05,-0.14,60,5.13,24.41,36.23,30.86,7.59,RUN
0.197135448,0.93,0.09,-0.15,43.82,-67.32,7.39,36.25,30.65,9.44,RUN
0.198133945,0.97,0.21,-0.2,40.65,27.47,11.9,36.66,30.9,8.98,RUN
0.199137688,0.95,0.29,-0.26,33.2,28.02,-3.17,36.46,31.09,13.81,RUN
0.199137688,1,0.22,-0.07,39.67,4.39,-6.1,36.13,31.79,16.59,RUN
0.200135231,0.94,0.14,-0.17,33.57,-12.02,-13.24,35.46,33.31,17.25,RUN
0.201135397,0.98,0.15,-0.11,39.98,-0.73,-15.44,34.85,34.88,18.74,RUN
0.201135397,1.03,0.11,-0.08,15.01,-5.74,-1.16,33.96,34.96,18.8,RUN
0.20213294,0.97,0.12,-0.06,3.3,-8.54,-7.81,33.25,35.57,19.78,RUN
0.203133821,0.98,0.18,-0.08,17.58,1.46,3.42,33.94,35.93,19.15,RUN
0.203133821,1.01,0.15,-0.05,21.97,2.81,0,33.22,35.41,19.87,RUN
0.20413661,0.98,0.13,-0.05,14.28,6.35,-2.87,33.41,35.75,20.84,RUN
0.205127001,0.98,0.13,-0.06,13.92,4.88,-0.92,33.29,35.38,21.52,RUN
0.205127001,0.99,0.11,-0.07,9.83,5.13,-3.78,33.15,35.02,23.11,RUN
0.206080914,1.01,0.1,-0.09,5.86,3.85,-3.72,33.09,35.45,23.97,RUN
0.206682444,1,0.11,-0.1,2.56,3.6,-4.82,33.33,35.44,24.08,RUN
0.207790375,1.01,0.1,-0.1,2.08,1.28,-2.26,32.81,34.88,24.33,RUN
0.207790375,0.99,0.1,-0.1,5.07,-2.62,-2.75,33.41,35.49,25.2,RUN
0.208754539,1.01,0.11,-0.09,13,-2.99,0.67,32.98,34.77,25.96,RUN
0.208754539,1,0.1,-0.09,13.31,-2.08,1.22,33.53,35,26.45,RUN
0.209794283,1,0.08,-0.08,8.24,-1.95,-1.95,33.23,34.56,25.95,RUN
0.210793495,1,0.11,-0.07,3.3,-5.31,-3.05,33.44,34.81,26.15,RUN
0.210793495,1,0.09,-0.07,0.12,-4.76,-1.53,33.13,35.08,26.14,RUN
0.211761951,1,0.09,-0.06,-3.3,-2.14,-0.37,33.06,34.83,24.73,RUN
0.212689877,1,0.1,-0.05,-4.76,-1.71,0.61,33.62,34.72,25.01,RUN
0.212689877,1.01,0.11,-0.05,-4.21,-0.55,0.61,33.69,34.38,24.19,RUN
0.214690924,0.99,0.1,-0.05,-2.81,-1.04,0.67,33.75,34.91,25.67,RUN
0.215792894,1,0.11,-0.05,-2.08,-0.61,1.28,33.52,34.52,24.26,RUN
0.216691732,1,0.11,-0.05,-1.59,-1.1,0.61,33.52,34.31,23.82,RUN
0.217688084,1,0.11,-0.05,-2.14,-0.67,0.92,33.61,34.67,24.9,RUN
0.218709946,0.99,0.11,-0.05,-2.08,0.06,0.79,33.54,34.64,24.6,RUN
0.218709946,1,0.13,-0.05,-3.54,1.22,-0.37,33.95,34.73,24.73,RUN
0.219688416,0.99,0.11,-0.06,-2.62,0.12,0.18,33.17,34.8,24.08,RUN
0.220713377,1,0.13,-0.06,-0.49,0.92,-0.98,33.24,34.59,24.74,RUN
0.221688271,0.99,0.12,-0.06,3.48,1.83,-2.99,33.09,34.77,24.12,RUN
0.221688271,1,0.11,-0.08,5.07,1.16,-3.85,33.23,35.11,25.38,RUN
0.222711802,1,0.11,-0.07,6.77,1.04,-5.13,32.34,34.35,25.29,RUN
0.222711802,0.99,0.1,-0.08,5.74,0.85,-4.58,32.62,34.96,24.3,RUN
0.2237041,1.02,0.1,-0.09,5.62,-0.79,-1.95,32.67,34.96,25.39,RUN
0.224703074,1,0.11,-0.07,12.45,0,2.62,32.18,34.89,26.88,RUN
0.224703074,0.96,0.13,-0.06,21.48,2.08,10.31,32.81,33.79,27.4,RUN
0.225708008,1,0.21,-0.11,11.6,4.64,15.32,33.31,32.26,28.71,RUN
0.226708412,1.01,0.23,-0.12,-2.01,-2.5,4.76,34.07,31.15,27.91,RUN
0.227703571,0.98,0.21,-0.1,-2.75,-7.2,-3.11,34.13,30.79,27.95,RUN
0.227703571,0.98,0.23,-0.1,-9.89,-12.94,-5.43,34.64,31.02,27.61,RUN
0.228688002,0.96,0.25,-0.08,-5.68,-13.79,-9.22,34.66,31.96,25.95,RUN
0.230688572,0.97,0.13,-0.05,-8.3,-6.53,-16.05,34.9,34.33,24.69,RUN
0.230688572,0.97,0.01,-0.01,-17.64,-6.65,-25.88,34.11,36.24,24.45,RUN
0.231688261,0.98,-0.06,0.02,-34.3,-3.78,-21.73,34.08,38.65,22.23,RUN
0.232687235,1.07,-0.04,0.09,-35.64,-9.16,-19.78,33.34,41.14,20.73,RUN
0.233686924,1.01,-0.1,0.16,-10.13,-15.44,-0.55,32.74,42.29,17.3,RUN
0.234687805,0.91,-0.1,0.18,0.43,-24.23,-1.28,33.37,42.11,14.79,RUN
0.235687494,1.04,-0.11,0.25,-15.14,-12.7,-5.13,33.58,42.61,15.42,RUN
0.236688375,0.95,-0.05,0.2,-7.75,1.83,1.22,34.29,42.54,13.9,RUN
0.238689423,1,-0.06,0.2,-1.22,6.35,3.85,33.7,42.7,13.66,RUN
0.240196943,0.98,-0.03,0.17,3.48,2.62,0.12,33.97,42.5,14.17,RUN
0.241206646,0.97,-0.05,0.15,3.3,1.4,-1.89,34.51,42.02,14.87,RUN
0.243204832,1.01,-0.1,0.12,10.8,1.83,-4.39,34.19,43.16,15.54,RUN
0.245205641,0.98,-0.09,0.15,27.53,1.53,0.55,33.41,43.03,15.67,RUN
0.246206045,0.98,-0.17,0.13,34.67,-1.65,9.46,34,41.71,19.09,RUN
0.247205019,1.02,-0.17,0.11,23.07,-5.25,0.24,33.58,40.98,20.39,RUN
0.248205185,0.97,0,0.1,8.79,3.85,5.49,33.4,39.97,20.46,RUN
0.249204636,0.99,0.04,0.08,18.43,-0.61,13.37,33.92,38.82,21.58,RUN
0.250204802,1,0.07,0.09,38.21,-3.36,22.77,34.28,37.46,23.11,RUN
0.251204252,0.99,0.09,0.11,48.89,-8.91,20.94,35.28,34.63,24.55,RUN
0.25220418,0.96,0.13,0.17,43.33,-3.17,10.31,36.16,32.04,27.69,RUN
0.253204346,1.03,0.11,0.23,13,-6.53,1.34,36.34,30.13,26.46,RUN
0.253204346,0.93,0.07,0.23,2.14,-8.12,-1.1,36.49,30.11,27.22,RUN
0.25420332,0.93,0.08,0.21,-0.31,-14.95,0.06,37.01,30.14,24.76,RUN
0.25420332,1,0.08,0.23,-6.71,3.78,0,36.57,29.86,25.85,RUN
0.255707502,0.97,0.06,0.25,-5.49,1.4,-5.68,36.19,30.14,25.46,RUN
0.256711721,0.99,0.07,0.23,-9.95,-6.77,-5,35.79,30.92,25.42,RUN
0.256711721,0.97,0.06,0.2,-15.2,2.81,-4.52,36.25,30.82,26.21,RUN
0.257711649,0.98,0.1,0.23,-13.43,8.12,-1.59,35.61,31.59,24.76,RUN
0.257711649,0.98,0.07,0.18,-6.96,3.3,-1.28,36.05,32.52,23.54,RUN
0.258711576,0.94,0.06,0.16,-5.74,4.27,-0.79,35.88,32.19,24.9,RUN
0.259711504,0.96,0.07,0.16,2.08,-7.63,-1.83,36.28,32.32,24.1,RUN
0.259711504,0.98,0.06,0.18,3.23,5.25,-0.37,35.9,32.76,25.45,RUN
0.260711432,0.99,0.07,0.2,2.2,1.04,1.16,36.27,32.39,24.52,RUN
0.26171279,0.99,0.06,0.2,1.16,-2.81,-0.98,35.53,31.95,25.62,RUN
0.26171279,0.98,0.07,0.21,0.85,-1.4,1.04,35.67,31.8,25.66,RUN
0.262711763,0.98,0.07,0.22,1.22,-2.99,3.05,36.04,31.93,24.82,RUN
0.263215303,0.94,0.04,0.23,1.83,-5.98,2.81,36.17,31.58,24.82,RUN
0.264219522,1,0.09,0.23,2.01,-15.56,-0.73,36.72,30.38,23.58,RUN
0.264219522,0.92,0.07,0.16,-2.14,1.46,-0.79,37.19,31.49,24.3,RUN
0.26521945,0.96,0.08,0.24,0.98,5.37,3.11,37.01,31.38,24.26,RUN
0.26622057,0.96,0.07,0.24,0.85,1.83,4.58,36.73,30.85,24.08,RUN
0.26622057,0.98,0.16,0.23,-2.01,10.19,0.06,36.83,30.43,25.5,RUN
0.267219782,0.97,0.13,0.23,-5.49,-1.22,-0.49,36.98,30.09,24.87,RUN
0.267219782,0.96,0.2,0.23,-16.3,-5.13,-5.07,36.95,30.76,24.99,RUN
0.268219709,1.02,0.17,0.22,-22.09,2.75,-6.96,37.13,31.03,24.17,RUN
0.269219637,0.91,0.11,0.19,-2.08,3.6,-12.63,37,32.95,23.96,RUN
0.269219637,1.01,0,0.18,-11.84,-2.01,-14.47,37,33.58,23.49,RUN
0.270219564,0.96,0.04,0.19,-18.01,12.82,-18.74,35.67,36.45,24,RUN
0.27121973,0.99,-0.01,0.15,-13.98,4.52,-14.89,35.28,37.44,23.32,RUN
0.271722555,0.98,-0.05,0.14,-20.26,5.43,-16.48,34.63,38.66,23.32,RUN
0.272726774,0.99,-0.06,0.14,-27.89,4.27,-14.22,34.16,40.15,22.35,RUN
0.272726774,0.97,-0.12,0.12,-40.22,9.4,-10.19,33.78,41.97,21.26,RUN
0.273726463,0.97,-0.15,0.09,-31.01,13.37,-17.46,32.64,43.85,19.85,RUN
0.273726463,1.14,-0.06,0.08,1.4,1.95,-16.66,31.08,45.87,17.9,RUN
0.274726391,0.92,-0.1,0.11,7.81,-2.2,4.39,31.59,45.83,19.04,RUN
0.275726557,1.01,-0.26,0.06,0.79,-3.85,6.71,32.32,45.36,18.14,RUN
0.275726557,1,-0.14,0.08,-14.04,2.81,-0.67,32.67,45.12,18.7,RUN
0.277259827,1.01,-0.14,0.1,-18.98,-8.48,-1.28,32.6,45,17.25,RUN
0.277837276,1.01,-0.05,0.17,-8,-10.31,0.98,32.26,45.3,15.93,RUN
0.278393984,0.97,-0.07,0.15,10.01,-19.53,2.87,33.04,44.4,15.63,RUN
0.279453993,0.95,-0.13,0.21,5.68,-13.55,5.31,32.89,44.04,14.59,RUN
0.280085087,0.96,-0.12,0.21,-7.51,3.54,-1.77,33.41,44.1,14.82,RUN
0.280652285,0.99,-0.07,0.23,-11.9,6.59,0.12,33.14,43.86,15.17,RUN
0.28123188,0.98,-0.08,0.19,-6.71,-7.08,1.1,33.8,44.2,14.11,RUN
0.28178978,1,-0.04,0.2,-6.1,5.19,1.59,32.91,43.57,14.16,RUN
0.282346249,0.99,-0.04,0.17,2.87,1.71,4.64,33.36,43.1,13.66,RUN
0.282904148,0.98,-0.03,0.18,7.69,-6.1,4.15,34.23,43.52,13.59,RUN
0.283967495,0.97,-0.04,0.19,5.98,-0.67,3.66,33.64,42.49,13.26,RUN
0.284595966,0.97,-0.02,0.2,2.14,1.16,-1.83,34.11,42.6,14.29,RUN
0.285151958,0.99,-0.04,0.19,3.91,-5.37,0.12,34.09,42.49,14.36,RUN
0.285709381,0.99,-0.02,0.18,12.33,-9.16,6.77,34.58,42.44,13.67,RUN
0.286286116,0.96,-0.04,0.23,-1.65,-10.86,10.8,34.99,41.44,12.82,RUN
0.286863089,0.94,0,0.25,-15.81,-11.41,8.48,35.41,40.25,13.16,RUN
0.287441492,0.99,0.07,0.27,-28.14,-4.27,6.29,35.14,39.65,11.28,RUN
0.288523912,0.92,0.1,0.3,-20.39,-10.01,11.54,35.35,37.94,10.12,RUN
0.289083004,0.91,0.1,0.3,-17.03,-7.81,6.29,35.38,37.18,8.41,RUN
0.289083004,0.94,0.14,0.29,-7.63,5.55,-1.71,36.54,37.11,7.28,RUN
0.290086746,0.95,0.13,0.31,0.06,-3.54,0.85,36.22,36.99,7.86,RUN
0.290086746,0.94,0.13,0.32,0.18,3.54,-1.46,36.82,36.45,7.5,RUN
0.291087151,0.95,0.1,0.28,14.1,2.75,-5.8,36.71,37.02,8.62,RUN
0.292365313,0.96,0.1,0.31,11.35,5.31,-6.53,36.36,38.2,8.53,RUN
0.292365313,0.89,0.03,0.28,9.83,8.79,-13.61,35.46,39.1,9.59,RUN
0.293087482,0.98,0.03,0.24,-0.67,9.89,-15.32,35.63,39.45,11.1,RUN
0.294087172,1.03,0.02,0.25,1.34,-2.38,2.69,34.75,40.43,11.8,RUN
0.294087172,0.94,0,0.27,2.2,-12.63,10.19,35.8,40.56,11.5,RUN
0.295086861,0.97,0.03,0.26,-1.1,1.59,1.59,36.43,39.28,11.4,RUN
0.296086788,0.96,0.03,0.27,3.6,2.38,-0.18,35.99,39.69,10.33,RUN
0.296086788,0.96,0.01,0.28,8,-1.95,-3.78,36.08,40.11,11.54,RUN
0.297086716,0.92,0.01,0.25,6.77,5.92,-6.04,35.45,39.65,11.02,RUN
0.297086716,0.98,0.04,0.21,0.18,16.66,-6.1,35.6,40.49,11.5,RUN
0.298086643,1.02,-0.01,0.21,0.85,4.58,2.26,35.78,40.64,13.4,RUN
0.299086571,0.94,0.03,0.21,-0.79,-11.66,1.1,34.69,40.64,13.99,RUN
0.299086571,0.98,0.01,0.22,-7.51,-5.86,0.98,35.16,40.65,14.12,RUN
0.300086737,0.97,0.03,0.24,-6.84,4.7,-0.85,35.56,40.23,11.8,RUN
0.301087141,0.98,0.03,0.23,-4.52,-1.28,-0.92,35.8,40.15,11.78,RUN
0.301087141,0.96,0.02,0.23,-2.81,-3.85,-0.31,35.63,40.2,11.65,RUN
0.301087141,0.98,0.02,0.23,-1.89,3.11,-1.22,34.91,40.56,11.56,RUN
0.302589655,0.98,0.01,0.22,-0.61,1.83,-0.61,35.63,40.67,13.46,RUN
0.303593636,0.98,0.03,0.21,0.06,-1.77,-1.77,35.77,41.17,11.72,RUN
0.303593636,0.97,0.01,0.23,-0.49,-0.12,-0.24,35.17,40.81,11.84,RUN
0.304593086,0.98,0.01,0.22,1.95,-0.79,-2.14,35.66,41.2,11.91,RUN
0.304593086,0.96,0.01,0.2,2.32,1.16,-3.48,35.22,41.09,12.49,RUN
0.305593967,1.02,0,0.2,1.59,3.05,2.81,35.62,41.55,12.99,RUN
0.306593895,0.99,0.03,0.21,-2.32,-7.2,2.56,36.13,40.93,12.33,RUN
0.306593895,0.97,0.02,0.28,0.85,-9.52,2.2,35.12,40.52,12.04,RUN
0.307593822,0.95,0.01,0.25,1.59,6.53,-0.49,36.23,40.83,11.27,RUN
0.308594227,0.97,0.02,0.28,5.98,12.33,-1.46,36.12,40.55,12.78,RUN
0.308594227,0.97,-0.01,0.2,18.68,7.57,-5.8,35.18,40.7,15.1,RUN
0.309593678,1,0.04,0.19,1.1,28.44,-0.85,35.28,40.94,15.87,RUN
0.309593678,0.94,-0.01,0,10.13,18.01,-10.44,35.02,41.05,16.93,RUN
0.310593843,1.04,-0.1,0.08,23.38,24.72,3.17,34.73,40.67,21.89,RUN
0.311593533,1,-0.03,0.01,48.95,9.89,-2.26,34.74,40.19,24.35,RUN
0.311593533,1.01,-0.11,-0.01,79.77,-8.3,12.76,34.5,38.13,27.42,RUN
0.31259346,1.03,-0.11,0.01,82.64,-10.68,12.51,35.6,34.84,28.98,RUN
0.313593149,0.99,0.01,0.02,64.88,-1.4,15.38,35.14,31.51,31.59,RUN
0.313593149,0.96,0.14,0.02,41.38,5.13,21.55,35.99,26.9,32.75,RUN
0.314593792,1,0.19,0.09,48.46,4.52,7.2,35.4,24.22,33.31,RUN
0.315593719,1.01,0.14,0.12,36.74,0.49,2.99,34.61,20.5,36.47,RUN
0.315593719,0.96,0.13,0.12,37.11,-6.35,5.19,35.03,18.51,36.28,RUN
0.316593647,1,0.11,0.11,20.63,-3.85,-0.61,35.46,16.41,35.53,RUN
0.316593647,0.98,0.09,0.11,1.89,2.44,-5.62,35.58,16.33,34.85,RUN
0.317593575,1,0.07,0.12,-4.52,-6.16,-5.25,34.92,16.42,35.77,RUN
0.318593502,1,0.05,0.12,-11.9,-9.22,-6.9,35.55,17.76,35.89,RUN
0.318593502,0.99,0.07,0.15,-18.43,-9.77,-3.3,35.45,18.84,35.64,RUN
0.31959343,0.99,0.08,0.17,-14.65,-4.33,-3.05,36.02,19.37,33.44,RUN
0.320593357,0.98,0.08,0.17,-6.96,-4.94,0.85,35.82,19.45,33.37,RUN
0.320593357,0.99,0.08,0.18,-0.98,-3.36,0.92,36.24,20.13,31.95,RUN
0.321593761,0.99,0.07,0.17,-1.1,-0.31,-3.05,36.29,20.79,31.69,RUN
0.321593761,0.99,0.07,0.16,-1.83,-0.92,-1.65,36.35,20.35,32.59,RUN
0.322593689,0.99,0.06,0.17,-1.04,-1.34,-0.43,36.07,20.54,32.85,RUN
0.323855877,0.99,0.08,0.18,-1.77,0,-0.67,36.16,20.52,32.19,RUN
0.323855877,0.96,0.07,0.17,2.81,1.89,-0.06,35.61,20.07,32.71,RUN
0.324594259,0.99,0.07,0.14,8.97,4.88,2.2,35.64,19.95,33.07,RUN
0.325593948,0.99,0.06,0.15,82.21,18.92,10.86,34.89,19.34,40.12,RUN
0.325593948,0.56,-0.01,-0.03,35.77,11.54,-2.81,34.57,13.17,40.34,RUN
0.345200062,-0.18,-0.08,-0.11,-6.71,-25.15,-14.04,34.94,12.94,39.94,RUN
0.455313921,2.41,-0.38,-0.01,-44.92,-21.24,-14.95,35.45,16.42,39.93,RUN
0.565563202,0.85,0.19,-0.12,-54.75,-8.48,7.69,35,19.71,39.5,RUN
0.6758039,-0.5,-0.08,-0.39,11.6,-30.88,-25.33,34.74,20.89,39.17,RUN
0.785768986,2.49,0.83,0.16,83.13,-6.23,10.68,36.5,20.69,37.35,RUN
0.89695549,1.09,-0.01,0.05,75.44,11.11,11.6,35.96,12.46,40.8,RUN
1.006574392,0.08,-0.18,-0.16,52.37,-26.61,-13.49,35.88,8.65,39.42,RUN
1.116224051,1.92,-0.65,-0.27,-10.5,67.38,-15.08,37.82,8.58,36.95,RUN
1.226238966,1.52,-0.06,0.18,-31.56,-10.62,20.75,37.11,11.11,39.65,RUN
1.336919785,-0.15,0.1,-0.17,-75.87,-38.27,-10.07,36.67,10.17,40.47,RUN
1.447936535,0.47,-0.31,0.06,54.69,88.56,15.63,39.2,13.04,34.94,RUN
1.557785034,2.19,-0.02,-0.05,54.44,-8.3,43.88,37.5,9.02,38.77,RUN
1.667926073,-0.39,-0.31,0.32,35.83,-60,-6.96,37.19,5.46,37.55,RUN
1.777720213,0.07,-0.08,-0.1,48.89,-67.26,18.68,37.85,9.38,38,RUN
1.887803793,2.41,-0.04,0.25,-77.58,114.01,17.03,37.84,10.01,39.23,RUN
1.997234821,0.88,0,0.09,-36.99,-46.02,20.45,37.78,13.21,39.17,RUN
2.107628107,-0.19,-0.07,-0.47,-64.82,11.6,-74.46,38.95,15.21,36.65,RUN
2.217303038,2.61,0.2,0.27,99.49,70.07,94.97,38.45,16.46,37.35,RUN
2.327129364,1.23,0.16,0.17,19.35,-19.35,22.34,38.12,11.29,36.79,RUN
2.437263489,-0.03,-0.46,0.01,8.12,-40.41,-39.25,39.11,10.55,36.57,RUN
2.54769063,0.65,0.09,0.07,5.37,30.27,-0.49,40.67,19.14,32.73,RUN
2.657937527,2.11,0.02,0.24,-32.29,2.38,-16.78,38.42,13.78,37.46,RUN
2.766550064,0.11,-0.54,-0.18,-104.86,-40.53,-69.95,38.28,15,37.37,RUN
2.877093077,0.01,0.66,-0.64,34.12,149.78,64.82,40.14,24.29,30.44,RUN
2.987730503,2.65,0.49,-0.12,82.89,-2.14,44.74,36.22,18.21,40.38,RUN
3.09705472,0.4,-0.06,0.06,35.89,21.79,-3.48,37.11,12.61,38.15,RUN
3.207783461,-0.14,-0.06,-0.11,0.67,-20.45,-23.07,36.93,12.95,39.98,RUN
3.316986561,2.88,0.45,0.74,-111.27,82.09,-59.45,37.59,14.62,38.81,RUN
3.427480459,1.26,0.03,0.03,-68.54,-15.44,28.75,36.87,20.07,39.45,RUN
3.53734374,0.65,0.22,-0.04,-87.1,82.52,1.83,36.46,21.12,39,RUN
3.647783279,1.33,0.17,0.22,76.66,-2.5,4.21,36.82,20.58,39.15,RUN
3.75677228,1.98,-0.13,0.28,70.19,15.26,23.93,37.26,15.83,39.61,RUN
3.866611242,0,-0.13,0.12,-13.18,44.62,-4.64,36.55,13.7,39.27,RUN
3.976432323,0.19,-0.05,-0.03,27.22,-50.11,-7.87,37.51,14.38,39.18,RUN
4.086068869,2.37,-0.39,-0.03,-72.88,13.06,-1.71,36.76,17.58,39.84,RUN
4.196532488,0.5,0.04,-0.08,-44.01,-7.93,18.19,36.3,20.96,39.92,RUN
4.306099415,-0.43,0.04,-0.07,34.61,-29.72,-4.15,36.74,20.58,39.15,RUN
4.417225122,3.11,0.36,0.09,36.93,36.74,-30.33,35.82,19.36,39.44,RUN
4.52638483,0.95,-0.2,0.03,65.31,0.67,-15.38,37.13,13.31,41.16,RUN
4.636640787,-0.05,-0.16,-0.28,3.97,-23.32,-24.54,35,13.1,41.93,RUN
4.745971918,2.28,-0.55,-0.34,-56.58,32.35,-9.28,37.9,14.65,39.2,RUN
4.856310368,1.54,0.13,0.04,-91.92,-0.61,11.23,36.02,19.87,41.72,RUN
4.965088129,0.54,0.01,-0.2,-94.42,71.66,19.17,35.94,21.63,40.87,RUN
5.075654268,0.44,0.19,-0.07,61.1,-26.98,-1.22,35.99,22,40.42,RUN
5.185286283,1.9,0.24,0.03,79.71,30.46,40.53,36.45,18.54,41.32,RUN
5.295763493,0.24,-0.01,0.03,40.71,6.53,-5.55,35.67,13.84,41.44,RUN
5.406395197,-0.01,-0.12,-0.08,20.51,-52.73,-17.58,36.01,13.2,41.22,RUN
5.516753435,2.39,-0.6,-0.09,-73.36,3.72,3.91,36.39,16.54,41.65,RUN
5.627462387,0.55,0.12,-0.1,-52.31,-16.48,10.31,36.55,20.74,40.27,RUN
5.737135649,-0.61,0.01,-0.35,31.74,-63.96,-12.21,36.17,22.56,38.33,RUN
5.847833872,2.54,0,-0.01,49.13,11.96,-22.46,35.58,21.12,39.34,RUN
5.957301617,0.88,-0.22,0.06,67.26,6.35,2.2,36.61,15.44,40.56,RUN
6.06707716,-0.1,-0.1,-0.22,18.74,7.63,-17.52,35.51,14.14,41.92,RUN
6.177633286,1.85,-0.84,-0.31,-73.97,60,-0.92,37.6,13.72,39.37,RUN
6.286814213,1.67,0.1,0.07,-101.32,-3.78,9.83,35.35,19.12,42.71,RUN
6.396047592,0.6,0.04,-0.17,-82.46,64.39,17.15,35.07,22.86,40.98,RUN
6.50611639,0.31,0.19,-0.18,67.26,-41.08,-1.4,36.15,22.88,38.38,RUN
6.616232634,2.01,0.24,0.06,50.6,33.94,27.65,35.53,21.34,40.93,RUN
6.725810289,0.08,-0.22,0.02,21.36,-1.04,9.34,34.74,17.15,41.36,RUN
6.835446835,-0.38,-0.01,-0.04,39.73,-58.84,-26.37,35.39,17.97,41.13,RUN
6.944026709,2.46,-0.64,0.23,-94.24,16.54,14.4,36.18,19.74,39.44,RUN
7.054293156,0.57,0.03,-0.11,-51.7,-17.46,32.65,35.64,23.45,39.62,RUN
7.164451838,-0.39,-0.04,-0.27,30.4,-52.55,-25.39,36.06,24.49,38,RUN
7.276655436,2.87,0.41,0.23,85.69,-34.79,3.05,35.36,24.17,37.94,RUN
7.386714935,1.11,-0.28,0.08,62.01,-4.7,-1.95,36.87,18.1,39.83,RUN
7.496134758,0,-0.08,-0.21,0.37,4.58,-2.26,35.88,16.58,40.38,RUN
7.606613398,2.11,-0.38,-0.13,-49.93,68.18,3.05,37.82,15.77,38.35,RUN
7.71820116,1.52,0.07,0.12,-87.71,-3.42,13.55,36.05,19.45,41.02,RUN
7.827365637,0.47,0.02,-0.18,-104.43,64.64,5.68,34.64,22.55,40.73,RUN
7.937789202,0.2,0.07,-0.21,66.1,-43.88,9.22,35.73,22.62,39.71,RUN
8.047144413,1.99,0.09,0.01,87.1,58.84,32.78,35.47,18.65,41.5,RUN
8.157234192,-0.17,-0.15,-0.06,32.47,-2.62,2.62,34.34,13.4,41.36,RUN
8.266967535,-0.12,-0.05,-0.11,37.72,-60.49,-19.47,34.17,13.37,41.64,RUN
8.377701521,2.7,-0.53,-0.01,-81.67,15.38,-0.24,35.25,16.75,41.47,RUN
8.487682819,0.68,0.15,-0.09,-41.81,-17.58,22.34,34.23,21.81,39.95,RUN
8.59681797,-0.56,0.05,-0.24,4.64,-22.64,-12.21,34.55,22.12,39.69,RUN
8.706709862,3.2,0.51,-0.02,51.09,-12.94,2.2,34.55,21.11,39.97,RUN
8.816749811,1.04,-0.35,0.13,74.58,-2.26,-2.93,35.79,14.77,40.47,RUN
8.926492691,0.42,-0.04,-0.09,-7.81,37.23,0.12,35.25,13.22,41.24,RUN
9.035107613,1.24,-0.49,0.16,-19.41,-20.57,-6.29,36.52,12.88,40.09,RUN
9.144367218,1.59,0.03,0.22,-98.69,23.68,6.59,35.27,17.08,40.16,RUN
9.252902746,0.12,0.05,-0.2,-33.57,5.8,20.02,34.51,19.42,40.8,RUN
9.363452673,0.26,0.28,-0.13,67.08,-23.38,-9.34,35.12,20.04,40.6,RUN
9.475202084,1.97,0.13,-0.01,84.11,18.49,28.81,35.18,16.32,42.04,RUN
9.585790157,0.33,0.01,0,21.85,18.13,-2.99,34.42,12.56,42.74,RUN
9.694351435,-0.15,-0.19,-0.2,-17.88,-16.42,-13.49,35.41,10.77,41.88,RUN
9.807361126,2.76,-0.62,-0.23,-64.94,-21.91,-2.62,35.86,17.68,41.96,RUN
9.91777873,0.54,0.13,-0.2,-47.61,-1.22,24.96,35.27,21.01,40.75,RUN
10.0278368,-0.59,0.04,-0.14,31.31,-65.61,-13.55,35.39,21.64,40.94,RUN
10.13720274,3.51,-0.01,-0.02,14.4,17.33,-8.91,35.77,20.19,40.76,RUN
10.24774694,1.15,-0.4,0.06,89.11,2.56,17.15,36.18,14.01,41.63,RUN
10.35701704,0.19,-0.05,-0.04,-19.53,36.68,-17.46,35.38,11.95,40.41,RUN
10.46713734,0.13,-0.25,-0.38,-56.52,18.68,-2.69,37.3,12.18,40.39,RUN
10.57709861,2.17,-0.21,-0.01,-97.17,-3.11,38.21,34.47,19.03,43.48,RUN
10.68726492,-0.18,0.11,-0.26,-48.71,25.39,30.7,35.14,20.18,41.8,RUN
10.79643178,-0.14,0.16,-0.07,73.49,-42.6,-12.08,35.39,20.3,40.3,RUN
10.90663457,2.8,0.87,-0.02,60.85,-25.15,16.85,34.4,18.95,42.31,RUN
11.01599836,0.66,-0.03,0.12,58.59,-27.28,-26.37,35.97,13.26,41.97,RUN
11.12742805,-0.69,-0.1,0.07,20.45,-70.25,-31.43,35.3,13.67,40.03,RUN
11.23774195,3.03,-0.09,0.09,-100.65,106.93,-26.61,36.01,17.98,40.55,RUN
11.3473413,1.28,0.07,-0.01,-71.78,-10.31,19.17,35.73,21.79,40.41,RUN
11.45842576,0.32,0.16,0.07,-99.91,72.45,6.84,34.97,23.79,40.48,RUN
11.5675106,1.15,0.04,0.19,68.66,-10.5,15.87,36.23,22.67,38,RUN
11.67779708,1.78,-0.22,0.31,75.38,21.61,24.78,37.16,19.82,39.62,RUN
11.78724694,-0.18,-0.15,-0.06,12.63,20.32,-3.85,36.89,15.27,38.1,RUN
11.89696288,0.13,-0.18,-0.11,9.16,-28.75,-10.44,37.48,15.01,39.78,RUN
12.00832176,2.07,-0.12,0.35,-101.01,36.56,-15.81,36.15,20.37,41.15,RUN
12.11863303,0.18,0.1,-0.2,-25.27,17.76,25.15,36.05,21.7,40.32,RUN
12.22840333,-0.25,0.01,-0.16,31.98,-25.57,-11.6,35.35,22.58,40.31,RUN
12.33919597,2.72,0.73,-0.02,68.66,-24.35,16.54,35.39,21.39,40.47,RUN
12.450459,0.63,-0.11,0.02,36.38,-3.78,-10.56,36.22,14.42,41.44,RUN
12.56023216,-0.36,0.01,-0.05,1.65,-25.57,-20.75,36.88,15.69,40,RUN
12.67024374,2.81,-0.13,0.03,-51.03,-12.45,-29.11,36.94,18.33,40.81,RUN
12.77998137,1.04,0.05,-0.13,-68.79,6.41,14.34,36.32,22.02,39.59,RUN
12.89002585,-0.23,-0.01,-0.32,-31.19,13.31,-7.57,34.86,23.5,40.2,RUN
13.00071049,0.87,0.11,0.18,99.12,-16.11,-4.52,35.95,23.44,39.54,RUN
13.10945511,1.91,-0.33,0.18,85.94,46.26,24.29,37.02,18.48,40.77,RUN
13.21883106,-0.24,-0.22,-0.05,29.36,35.22,7.51,35.6,13.2,41.99,RUN
13.32915425,0.28,-0.22,-0.01,-20.32,-40.1,-5.92,36.13,12.28,41.47,RUN
13.43959093,2.25,-0.36,0.08,-91.49,9.83,-2.01,35.83,18.81,41.65,RUN
13.54973674,0.22,0.08,-0.11,-64.45,16.05,19.17,35.41,21.78,40.83,RUN
13.65976572,-0.26,0.05,-0.13,27.1,-18.86,2.99,34.79,22.38,41.1,RUN
13.77061176,3.16,1.06,-0.02,49.01,-16.54,5.74,34.56,20.69,40.28,RUN
13.8797729,0.75,0.05,0.02,42.72,1.71,-18.13,35.29,15.22,41.55,RUN
13.98957157,-0.44,-0.12,-0.13,17.58,-41.38,-31.49,35.41,15.34,40.67,RUN
14.09917045,3.14,-0.55,0.1,-75.99,68.48,-18.86,35.82,19.35,41.52,RUN
14.20953512,1.3,0.21,0,-81.42,-3.78,16.97,35.35,22.64,40.81,RUN
14.31927609,0.04,0.07,-0.21,-70.68,42.18,8.54,35.08,23.61,38.38,RUN
14.43016529,0.78,0.25,-0.09,95.64,-8.73,-10.38,35.22,23.85,37.43,RUN
14.54020953,1.98,-0.09,0.09,76.23,34.42,10.5,35.79,20.08,40.08,RUN
14.65036035,-0.51,-0.13,0,41.44,27.65,13.31,34.78,12.7,42.97,RUN
14.75960779,0.01,-0.26,-0.18,50.66,-58.11,-12.21,37.68,10,40.3,RUN
14.86908436,2.92,-0.47,-0.25,-53.53,-8.48,3.23,35.93,15.15,42.69,RUN
14.97953987,1.36,0.18,-0.42,-105.22,65.98,37.54,36.24,17.69,40.95,RUN
15.08908081,-0.34,0.1,-1.27,32.1,-55.3,-16.05,38.46,19.76,35.95,RUN
15.19948125,2.61,0.54,-0.08,77.7,-27.16,4.27,37.56,18.48,39.66,RUN
15.30982399,0.69,0.03,-0.37,37.66,78.55,-0.92,37.74,13.57,39.54,RUN
15.41952991,0.08,0.44,0.28,-92.1,93.38,-19.65,37.35,14.97,41.32,RUN
15.52927089,1.53,-0.38,-0.16,-74.65,70.37,-0.31,38.89,15.39,36.78,RUN
15.64080596,1.77,0.14,0.09,-100.22,-9.58,-3.78,35.02,20.81,42.2,RUN
15.75121689,0.24,-0.02,-0.08,-35.64,0.73,-2.69,34.83,23.6,40.33,RUN
15.86112928,0.27,0.18,-0.14,46.08,-18.43,1.46,34.96,24.99,39.07,RUN
15.97134256,1.83,0.11,-0.07,92.22,16.91,34.12,34.67,23.49,40.05,RUN
16.08094907,-0.03,-0.1,0.04,50.9,7.39,3.85,33.73,15.78,42.42,RUN
16.19127488,-0.09,-0.17,-0.03,-12.39,-36.68,-6.35,34.01,17.97,43.36,RUN
16.30119681,2.47,-0.26,-0.19,-70.98,0.55,-3.72,34.5,22,43.36,RUN
16.4116838,0.56,-0.05,-0.16,-38.57,-2.75,26.86,34.16,23.91,41.63,RUN
16.52165174,-0.35,0.19,-0.19,36.8,-31.01,-2.62,33.92,23.19,41.03,RUN
16.63135242,2.38,0.4,-0.19,87.46,-60.36,16.54,35,21.07,42.02,RUN
16.74020028,0.81,-0.13,0.01,42.91,17.33,-9.89,35.6,13.77,40.67,RUN
16.85060024,-0.18,-0.21,-0.21,8.36,-19.1,-8.97,34.67,14.06,42.48,RUN
16.96027899,3.14,-1.03,0.56,-67.38,52,-29.6,36.01,16.49,41.85,RUN
17.06927419,1.45,0.17,-0.01,-85.75,17.33,11.96,35.14,20.5,40.94,RUN
17.1800313,-0.19,0.19,-0.28,-10.93,-19.71,6.47,35.52,21.86,39.45,RUN
17.28957605,1.29,0.15,0.11,104.68,21.79,-6.9,36,21.28,39.14,RUN
17.40062428,1.46,-0.35,0.14,71.9,32.84,18.74,35.56,15.75,41.48,RUN
17.51064587,0.27,-0.18,0.06,-21.12,56.34,1.16,34.68,11.33,43.46,RUN
17.61999059,0.26,-0.2,-0.26,8.85,-71.96,-25.39,33.8,13.81,42.93,RUN
17.73164606,1.99,-0.36,0.05,-82.58,0.79,-9.58,34.47,18.62,43.9,RUN
17.84230137,0.1,-0.04,-0.18,-36.13,-1.28,19.47,35.06,21.08,42.7,RUN
17.95250821,0.14,0.07,-0.12,30.03,-2.2,3.05,35.17,20.87,42.47,RUN
18.0607903,3.24,0.96,-0.32,86.49,-25.15,4.33,34.17,19.32,43.77,RUN
18.17108893,0.77,-0.08,-0.13,18.37,44.86,-18.25,32.86,10.71,46.13,RUN
18.28096962,-0.24,-0.21,-0.26,3.05,-21.55,-22.64,31.59,10.03,45.31,RUN
18.39067197,2.71,0.01,0.09,-89.97,6.65,-28.2,32.79,14.58,44.62,RUN
18.50170541,1.31,0.12,-0.08,-76.9,78.31,20.87,34.42,20.9,45.06,RUN
18.61092305,-0.06,0.17,-0.31,-25.57,8.73,13.55,31.81,22.49,44.2,RUN
18.72087455,1.08,0.21,-0.15,107.6,-43.15,-0.98,33.13,22.05,45.02,RUN
18.83009005,1.49,-0.26,-0.16,63.6,60.49,21.18,33.26,13.43,45.64,RUN
18.9389751,0.17,-0.13,-0.06,49.99,-0.12,0.18,31.25,11.65,46.24,RUN
19.04908085,0.15,-0.2,-0.13,-64.51,-9.34,-8.36,33.91,10.73,44.45,RUN
19.15993237,2.8,-0.31,-0.39,-73.91,-47.85,7.2,33.36,17.47,45.04,RUN
19.27021885,0.57,0.16,-0.18,-43.82,12.08,14.83,33.12,21.31,44.15,RUN
19.38076091,-0.08,0.12,-0.2,43.64,-39,-5.13,32.1,22.38,43.65,RUN
19.49063349,2.52,0.61,-0.45,74.4,-32.96,16.54,34.13,18.21,42.49,RUN
19.60106969,0.92,0.03,-0.07,29.79,18.8,-11.9,33.69,13.66,45.63,RUN
19.71119905,-0.15,-0.06,-0.18,31.49,-41.44,-28.08,33.51,13.12,43.8,RUN
19.8214705,3.14,-0.41,0.13,-90.45,44.68,-26.92,34.58,15.88,43.47,RUN
19.93094349,1.54,-0.07,0.24,-93.63,47.79,28.02,33.65,21.2,42.65,RUN
20.04109955,-0.02,0.09,-0.19,-20.45,12.7,16.36,33.34,23.4,42,RUN
20.15060544,0.8,0.2,-0.2,89.23,-20.94,3.85,34.16,22.2,40.94,RUN
20.26068592,1.84,0.04,0.01,81.24,48.77,26.18,35.6,15.94,42.35,RUN
20.36881065,0.31,-0.04,-0.06,40.16,12.51,-5.49,33.84,13.48,42.71,RUN
20.4788053,0.21,-0.18,-0.06,-37.48,4.27,-12.7,34.99,12.72,42.33,RUN
20.58958983,2.82,-0.57,-0.24,-49.19,-17.03,-13.18,34.47,16.97,42.58,RUN
20.6999619,0.59,0.09,-0.12,-38.15,15.69,14.65,33.58,20.4,43.08,RUN
20.81010413,-0.28,0.04,-0.19,-8,-17.64,-3.97,31.81,22.09,43.97,RUN
20.92035007,2.52,0.22,0.26,22.46,-3.85,33.69,32.31,21.13,43.7,RUN
21.02932525,1.26,-0.23,0.25,11.96,83.31,19.35,32.96,14.47,44.97,RUN
21.13785434,-0.05,-0.13,-0.1,42.85,-16.3,8,31.07,11.98,46.33,RUN
21.24809599,0.69,-0.26,-0.25,-67.5,-6.71,-5.55,33.4,11.15,45.07,RUN
21.35824442,2.01,-0.26,-0.15,-105.16,-2.5,0.55,34.07,15.5,44.41,RUN
21.46690011,0.4,0.18,-0.19,-59.39,11.54,29.54,32.89,19.57,45.03,RUN
21.57709837,0.05,0.07,-0.2,19.47,-38.15,-17.76,32.92,21.29,44.51,RUN
21.68733788,3.04,0.58,-0.27,49.62,-35.46,-23.19,34.17,20.67,44.09,RUN
21.79694963,0.92,-0.11,0.02,21.61,27.1,-5.13,34.4,16.24,45.58,RUN
21.90738106,-0.21,-0.28,-0.2,56.15,-37.96,-14.4,33.45,13.59,44.57,RUN
22.01694965,2.04,-1.05,0.05,64.15,-29.6,-34.42,34.86,15.19,43.08,RUN
22.12771082,1.54,0.03,0.32,-94.85,83.74,28.87,35.02,19.31,43.03,RUN
22.23686719,0.1,0.37,-0.24,-44.31,11.41,0.06,32.95,21.34,43.98,RUN
22.34746289,0.16,0.14,-0.13,15.93,-24.05,-4.64,32.86,22.51,43.3,RUN
22.45734119,2.04,0.49,-0.29,46.69,-24.96,23.74,33.97,19.27,42.99,RUN
22.56774449,0.58,0.11,0.03,36.19,-3.85,-0.73,33.09,14.82,45.37,RUN
22.67722607,-0.13,-0.1,-0.15,-19.71,-56.4,-24.23,32.64,12.81,43.84,RUN
22.78718305,2.64,-0.58,0.21,-24.66,-3.48,-71.23,36.45,13.67,41.66,RUN
22.89709783,1.28,0.07,0.23,-104.98,44.62,33.51,35.85,21.47,41.52,RUN
23.00609398,0.03,0.12,-0.21,-53.34,-0.18,3.23,34.46,24.33,41.61,RUN
23.11616802,0.55,0.03,-0.11,52.61,-52.86,14.65,38.02,23.22,36.76,RUN
23.22604442,2.01,0.05,0.04,33.51,56.21,47.3,36.8,18.8,40.39,RUN
23.33475661,0.13,0.04,0.12,38.51,14.95,11.54,36.05,14.67,41.49,RUN
23.44382811,-0.19,-0.09,-0.13,-2.08,-26.55,-45.65,34.52,15.99,43.84,RUN
23.55449581,2.79,-0.58,-0.39,-37.48,12.76,-16.36,36.34,17.29,43.95,RUN
23.66422582,0.87,-0.24,-0.09,-59.69,15.01,38.88,34.88,20.79,43.38,RUN
23.77313995,-0.2,0.04,-0.25,-19.59,12.63,0,33.2,23.19,44.04,RUN
23.88205552,2.93,0.51,0.06,21.48,1.77,34.73,33.24,21.11,43.29,RUN
23.99135327,1.66,-0.05,0.39,1.1,74.16,1.77,34.11,16.52,44.78,RUN
24.10127234,0.08,-0.07,-0.03,25.76,14.65,-14.04,32.04,15.09,45.14,RUN
24.21177983,0.39,-0.2,-0.41,-41.32,-14.77,-7.26,33.53,14.58,45.98,RUN
24.32192087,2,-0.32,-0.18,-76.23,7.2,-18.98,33.53,18.6,43.43,RUN
24.43201184,0.29,0.03,-0.17,-16.97,2.81,-0.12,32.93,21.57,43.93,RUN
24.54263687,0.01,0.08,-0.18,21.73,-20.81,-4.46,33.62,21.73,43.18,RUN
24.65229964,3.06,0.77,-0.36,51.21,-18.98,-5.68,33.62,19.51,44.24,RUN
24.76199627,0.96,-0.14,-0.15,19.84,45.1,-1.83,32.8,13.59,45.53,RUN
24.87277412,-0.12,-0.14,-0.21,26.98,-44.43,-15.14,30.03,11.84,47.55,RUN
24.98336244,2.02,-0.64,0.22,15.56,-50.05,-1.28,32.51,13.32,45.19,RUN
25.09310889,1.54,0.03,-0.03,-100.4,75.13,6.96,34.48,17.71,43.49,RUN
25.20183039,0.11,0.21,-0.22,-37.54,11.72,14.83,32.13,21.25,43.87,RUN
25.31240153,0.11,0.06,-0.22,27.34,-25.15,-1.22,32.57,21.15,44.7,RUN
25.42331696,1.87,0.72,-0.21,83.8,-43.52,5.37,32.07,18.21,44.23,RUN
25.53199792,0.79,0.16,-0.05,33.81,6.65,-14.04,31.93,14.23,44.53,RUN
25.64242768,-0.37,-0.16,-0.14,16.11,-30.52,-15.38,31.85,12.68,44.96,RUN
25.75259161,2.44,-0.14,0.09,-35.46,-17.21,-52.55,33.62,13.7,43.13,RUN
25.86192656,1.16,-0.03,-0.14,-77.51,50.42,17.52,33.5,20.65,43.41,RUN
25.97223401,-0.21,0.04,-0.29,-5.62,18.01,13.67,30.68,24.16,44.32,RUN
26.08268833,0.77,-0.08,-0.26,46.69,-17.88,-2.38,33,22.51,44.37,RUN
26.19212961,1.87,-0.03,-0.04,73.3,26.61,34.73,34.24,17.64,43.66,RUN
26.30290771,0.21,0.04,-0.02,46.57,3.05,2.56,32.93,14.07,45.45,RUN
26.41367507,-0.03,-0.09,-0.06,-1.65,-13.37,-14.53,32.82,12.82,44.84,RUN
26.52341008,2.73,0.1,-0.38,-25.21,-87.77,18.98,36.71,14.45,43.03,RUN
26.63248634,0.71,-0.05,-0.24,-65.61,65.06,31.13,35.12,16.63,42.97,RUN
26.74210596,-0.14,0.03,-0.27,-14.71,-17.15,-28.93,35.16,18.3,42.2,RUN
26.85107207,2.59,0.57,-0.04,69.09,75.01,39.37,36.78,20.57,40.16,RUN
26.9601326,1.38,0.15,0.02,40.47,-0.43,2.5,35.78,15.7,41.38,RUN
27.07030272,0.01,0.02,-0.03,16.36,-19.23,-2.75,36.56,14.69,40.1,RUN
27.18062782,0.33,-0.02,-0.03,-54.5,-87.89,-36.87,37.35,16.48,38.83,RUN
27.29082203,2.09,-0.17,0.05,-41.02,54.5,-44.13,37.11,20.3,38.84,RUN
27.40235853,0.11,-0.01,-0.21,-4.76,-26.06,-4.82,35.05,23.17,38.88,RUN
27.51303554,0.06,0.11,-0.02,12.27,-19.9,-7.87,34.88,23.14,39.71,RUN
27.622684,3.02,0.04,-0.31,39.55,-21.36,50.05,35.24,21.81,40.47,RUN
27.73337483,0.69,0.09,-0.15,65.19,11.96,-7.08,34.42,16.13,43.53,RUN
27.84282851,-0.16,-0.23,-0.26,26.61,-10.56,-8.91,32.76,13.51,43.08,RUN
27.95306826,2.3,-0.23,-0.18,-83.74,6.16,-32.65,33.96,16.26,43.85,RUN
28.06312799,1.39,-0.05,-0.08,-69.46,54.26,18.98,33.29,19.32,42.63,RUN
28.17282796,-0.03,0.17,-0.27,-6.53,-13.31,16.72,32.18,21.06,42.11,RUN
28.28337145,0.59,0.27,0.03,63.66,27.83,7.14,33.14,20.18,42.47,RUN
28.39252424,1.62,0.39,-0.26,88.81,30.4,17.03,31.79,16.8,43.62,RUN
28.50184393,0.16,-0.12,0.02,40.95,29.11,-5.86,30.26,12.9,45.96,RUN
28.61135054,0.13,-0.22,-0.1,-47.12,-36.25,-10.99,32.73,11.9,44.67,RUN
28.72082257,2.72,-0.34,-0.13,-81.85,-36.5,-8.06,32.53,18.62,44.01,RUN
28.83251047,0.49,0.07,-0.26,-33.26,44.8,0.55,30.68,22.35,45.92,RUN
28.94205093,-0.12,0.14,-0.12,25.63,-43.95,-0.92,29.54,22.78,45.15,RUN
29.0519557,2.68,0.26,-0.43,56.46,-6.96,-16.11,30.15,20.96,46.51,RUN
29.16102815,0.85,-0.13,-0.04,-7.75,76.72,-0.31,30.53,14.84,47.5,RUN
29.27112675,-0.36,-0.22,-0.03,89.78,-53.83,-16.05,28.36,12.17,49.11,RUN
29.38127756,2.2,-0.6,-0.25,-84.78,43.58,-36.99,32.56,13.57,47.11,RUN
29.49200249,1.52,0.06,-0.45,-87.16,33.14,14.71,32.48,19.07,46.17,RUN
29.60033822,-0.02,0.29,0.01,-62.56,37.78,23.01,30.09,20.18,47.89,RUN
29.71134734,0.55,0.22,-0.23,60.97,-41.63,-2.81,31.91,18.51,46.31,RUN
29.82156157,1.88,0.49,-0.35,89.42,15.01,23.99,31.69,17.08,47.61,RUN
29.93096042,0.26,0.05,-0.06,34.06,4.09,-0.92,30.35,12.18,49.15,RUN
30.04099798,0.07,-0.19,-0.05,-28.81,-38.76,-12.21,32.71,10.52,46.29,RUN
30.15342402,3.02,0.13,-0.49,-86.06,-59.02,-17.7,34.13,18.08,45.3,RUN
30.26364279,0.54,-0.05,-0.14,-61.4,18.68,14.89,32.8,20.85,45.24,RUN
30.37351322,-0.2,0.03,-0.2,-6.96,-25.45,-0.43,32.06,22.68,45.04,RUN
30.48343992,3.03,0.46,-0.47,67.99,-32.23,3.66,32.58,21.86,44.46,RUN
30.59242439,0.82,-0.2,-0.07,18.43,35.89,-6.35,34.03,16.54,45.09,RUN
30.70266199,-0.21,-0.15,-0.1,60.36,-54.69,-25.51,32.2,13.98,44.09,RUN
30.8132937,2.69,-0.17,-0.17,-82.64,80.75,-8.91,33.58,17.77,45.65,RUN
30.92300892,1.01,0.3,-0.27,-77.94,37.6,14.83,33,23.02,43.59,RUN
31.03292418,-0.11,0.11,-0.23,-7.81,-7.87,10.01,31.53,23.39,44.56,RUN
31.14308167,0.97,0.19,0.06,45.53,14.83,10.8,33.28,22.19,41.92,RUN
31.25222063,1.63,-0.14,-0.22,96.92,56.34,13.92,33.17,19.69,43.18,RUN
31.36245823,0.16,-0.28,-0.1,55.97,-3.91,-3.48,31.51,13.49,45.98,RUN
31.47163582,0.09,-0.13,-0.14,-43.7,-27.95,0.61,34.7,11.96,43.77,RUN
31.58261228,2.43,-0.42,-0.14,-86.24,-5.13,0.67,33.94,17.4,43.51,RUN
31.69198155,0.29,0.04,-0.24,-35.22,-10.62,12.51,33.19,21.02,44.03,RUN
31.80200291,-0.13,0.05,-0.14,18.37,-32.41,-6.23,31.93,21.9,42.68,RUN
31.91190577,3.5,0.93,-0.05,93.63,-56.95,-0.98,32.73,21.19,43.53,RUN
32.0235374,0.6,0,-0.12,41.56,21.18,-9.46,33.76,13.01,44.41,RUN
32.13345075,-0.13,-0.18,-0.07,67.08,-43.52,-24.23,33.52,10.71,42.88,RUN
32.24312091,3.04,0.34,0.1,-55.05,-16.91,-31.98,34.4,14.44,43.6,RUN
32.35301971,0.98,0.25,-0.27,-64.58,5.62,16.36,34.08,20.34,42.8,RUN
32.46277666,-0.44,0.05,-0.25,-0.79,-51.51,2.2,33.47,21.83,41.43,RUN
32.57411432,3.94,-0.23,0.1,-5.49,55.54,3.3,35.78,20.59,40.17,RUN
32.68387103,1.68,-0.14,0.02,72.33,46.08,17.46,34.68,15.54,44.71,RUN
32.79491043,0.28,-0.15,-0.06,5.31,10.56,2.26,32.92,12.74,43.66,RUN
32.90557384,0.39,-0.28,-0.12,-11.23,-60.67,-3.78,35.47,13.99,42.55,RUN
33.01493478,1.87,-0.17,0.05,-91.37,38.82,4.64,35,19.14,42.7,RUN
33.1247766,0.2,0.09,-0.24,-23.8,-2.69,20.26,34.23,21.44,42.31,RUN
33.23560834,-0.11,0.12,-0.09,42.18,-32.17,-4.7,32.93,22.13,42.53,RUN
33.34548903,2.94,0.67,-0.14,71.66,-56.7,-14.89,33.52,19.7,41.59,RUN
33.4556334,0.61,0.04,-0.02,29.3,26.43,3.97,33.41,12.56,44.62,RUN
33.5653038,-0.17,-0.13,-0.03,47.24,-47.06,-15.63,33.61,10.73,43.16,RUN
33.67582846,2.21,0.15,-0.12,-40.59,-17.52,-18.55,34.41,14.62,42.48,RUN
33.78738737,0.97,0.15,-0.23,-83.86,9.52,5.43,34.13,19.29,42.83,RUN
33.89678121,-0.33,0.04,-0.31,-6.65,-38.82,5.31,34.09,21.87,41.91,RUN
34.00615287,3.06,0.21,-0.08,-9.28,56.46,-0.18,35.19,22.02,39.66,RUN
34.1153276,1.67,-0.06,0.14,65.86,42.85,26.06,35.96,15.65,42.53,RUN
34.22545695,0.01,-0.16,-0.17,54.2,18.62,4.64,32.98,12.43,43.24,RUN
34.33365893,0.14,-0.21,-0.16,-40.04,-13.06,-9.89,34.89,11.05,40.73,RUN
34.4439497,2.21,-0.24,-0.12,-102.91,-11.17,-5.92,34.64,15.3,42.25,RUN
34.55454206,0.47,0.14,-0.22,-60.85,7.2,11.35,34.24,19.23,41.8,RUN
34.66361523,-0.39,0.08,-0.13,22.09,-32.9,-9.28,33.34,21.57,41.46,RUN
34.77320385,2.56,0.35,-0.12,79.71,-11.9,6.04,35.03,20.26,40.23,RUN
34.88178658,0.8,-0.14,-0.04,20.02,40.04,4.39,33.89,13.65,43.93,RUN
34.99070311,-0.06,-0.11,-0.13,49.07,-53.53,-7.26,33.69,10.64,42.11,RUN
35.10139227,2.7,-0.48,-0.05,-79.96,32.04,-22.89,35.95,12.35,42.29,RUN
35.21138048,1.5,-0.03,0.1,-97.11,59.75,17.58,34.29,18.32,42.18,RUN
35.32112408,0.11,0.11,-0.25,-50.6,10.19,14.34,33.57,20.79,41.06,RUN
35.43021798,0.31,0.12,-0.08,39.73,-38.27,-7.57,34.12,20.65,40.48,RUN
35.53968644,2.06,0.35,-0.18,105.59,43.95,25.27,34.72,17.02,42.58,RUN
35.64926863,0.12,-0.02,-0.05,62.93,7.02,2.26,34.01,11.5,40.99,RUN
35.75813532,-0.26,-0.06,0.01,16.24,-29.72,-28.69,35.16,10.18,42.19,RUN
35.86711144,3.4,-0.07,1.09,-99.67,41.81,-18.31,34.39,14.4,43.07,RUN
35.97673273,0.68,0.26,-0.2,-41.87,-29.05,12.08,33.34,18.92,42.93,RUN
36.08700705,-0.46,0.1,-0.15,-7.81,-25.33,4.09,33,19.89,42.26,RUN
36.19768691,2.56,0.22,0.3,19.41,-8.61,29.72,34.84,19.53,40.64,RUN
36.30672765,1.38,-0.2,0.45,15.93,64.94,15.63,33.23,13.06,43.2,RUN
36.41731977,0,-0.21,-0.12,47.06,-5.07,3.85,32.32,11.07,44.57,RUN
36.52586961,1.33,-0.46,0.08,-10.01,-27.34,-23.5,34.03,11.56,42.79,RUN
36.63482809,1.71,-0.02,-0.08,-106.08,45.96,-20.02,35.24,16.97,42.18,RUN
36.74445415,0.22,0.08,-0.09,-62.44,18.68,17.7,33.76,20.02,44.01,RUN
36.85349822,0.04,0.17,-0.18,50.29,-29.11,-3.72,34.11,20.8,40.53,RUN
36.96259022,2.66,0.81,-0.09,87.77,-4.09,21.06,33.98,19.13,40.83,RUN
37.07213044,0.53,0.09,0,39.79,17.21,3.6,33.53,11.74,43.88,RUN
37.18156505,-0.27,-0.04,-0.14,30.09,-54.14,-28.75,33.94,10.67,43.29,RUN
37.29058337,2.63,-0.24,-0.05,-49.8,-16.78,-31.68,34.69,15.04,42,RUN
37.40037656,0.91,0.09,-0.26,-70.31,13.24,3.91,34.02,20.24,42.32,RUN
37.50957274,-0.4,0.01,-0.27,-24.78,-4.76,13.98,33.56,22.16,43.1,RUN
37.62007833,3.62,-0.08,0.26,-24.96,4.88,12.27,34.17,21.31,42.94,RUN
37.73042464,1.23,-0.17,0.01,46.39,46.39,15.81,34.51,14.32,45.03,RUN
37.84037995,-0.12,-0.14,-0.24,61.28,-36.07,0.12,32.93,11.18,44.67,RUN
37.95114446,0.64,-0.31,0.07,-54.02,8.85,-11.11,36.38,11.74,41.88,RUN
38.06009889,1.93,-0.17,-0.02,-108.7,29.11,-17.09,35.31,17.6,42.82,RUN
38.16978621,0.27,0.08,-0.21,-43.88,23.93,16.6,34.38,21,42.61,RUN
38.27816463,0.04,0.08,-0.2,49.44,-28.2,-0.61,35.14,20.73,41.69,RUN
38.38921165,3.12,1.08,-0.13,89.29,15.32,-7.08,35.56,19.12,42.13,RUN
38.50012732,0.65,0.04,-0.04,58.35,7.57,-4.82,34.89,10.29,43.41,RUN
38.60856509,-0.38,-0.14,-0.04,-7.81,-39.55,-31.13,34.96,9.39,43.95,RUN
38.71874022,2.66,0.26,0.07,-69.52,19.1,-50.05,36.07,12.71,43.91,RUN
38.82944107,0.98,0.03,-0.29,-74.77,7.02,20.45,34.42,18.47,44.7,RUN
38.9389503,-0.11,0.01,-0.28,-42.3,19.41,9.09,34.16,20.94,43.93,RUN
39.04952478,1.11,0.19,0.26,84.47,8.85,4.88,35.63,20.64,42.18,RUN
39.15916729,1.8,-0.07,0.11,64.27,65.06,21.67,34.48,13.07,44.89,RUN
39.26831245,-0.08,-0.26,-0.07,25.15,32.29,-4.88,33.4,10.96,43.97,RUN
39.37679124,0.02,-0.13,-0.06,-33.26,-26.25,-16.66,34.57,12.22,43.16,RUN
39.48668885,2.31,-0.55,-0.13,-104.86,-49.01,16.85,34.88,16.53,43.25,RUN
39.59733939,0.6,0.09,-0.14,-83.5,16.78,18.43,34.48,21.47,42.36,RUN
39.70687461,-0.44,-0.03,-0.15,5.62,-40.1,-4.94,34.57,23.01,41.36,RUN
39.81680489,2.47,0.5,-0.39,74.95,-21.36,-19.59,34.85,22.34,40.58,RUN
39.92691374,0.73,-0.12,-0.05,41.2,33.57,8.36,33.26,14.65,44.69,RUN
40.03709435,-0.12,-0.15,-0.21,35.64,-40.16,-18.86,32.89,10.94,44.63,RUN
40.14682746,2.62,-0.57,0.06,-63.35,11.35,-31.92,35.38,11.94,42.54,RUN
40.25758719,1.43,0.11,0.12,-100.77,24.05,4.27,35.74,19.02,41.88,RUN
40.36777782,0.24,0.22,-0.19,-66.89,19.59,1.46,34.44,21.78,40.98,RUN
40.47895169,0.54,0.17,-0.09,74.34,-30.27,-0.73,35.79,22.08,39.78,RUN
40.58908248,1.97,0.21,0.05,104.25,35.89,31.98,35.88,16.21,42.26,RUN
40.69799709,-0.18,-0.14,-0.04,36.38,10.44,13.12,35.22,11.29,42.42,RUN
40.80703306,-0.05,-0.04,0,37.54,-54.14,-15.87,35.96,10.97,41.41,RUN
40.91754365,3.2,-0.4,-0.01,-65.31,26.61,6.1,36.06,14.7,42.93,RUN
41.02673292,0.55,0.11,-0.18,-45.35,-23.07,24.9,34.11,18.3,43.46,RUN
41.13709092,-0.47,0.11,-0.09,-33.69,-26.49,-9.7,33.12,20.2,43.26,RUN
41.24938011,2.3,0.59,0.38,18.37,-28.99,15.38,35.38,20.8,41.81,RUN
41.35780883,1.27,-0.12,0.25,29.3,25.76,16.85,34.99,15.88,43.25,RUN
41.46833658,-0.01,-0.2,-0.13,23.5,-9.4,-2.32,33.35,14.9,43.35,RUN
41.57816839,1.28,-0.6,0.2,6.9,-33.02,-22.03,35.06,16.47,42.75,RUN
41.6880846,1.58,0.05,0.06,-110.6,43.95,3.36,35.62,19.75,41.02,RUN
41.79809284,0.24,0.08,-0.3,-27.65,14.1,9.34,34.13,22.67,41.65,RUN
41.90790653,0.08,0.19,-0.27,70.86,-32.84,-7.51,34.95,21.41,42.27,RUN
42.01749325,2.52,0.5,-0.12,94.79,12.76,0.98,33.54,17.94,43.91,RUN
42.12831926,0.59,0.02,0.02,51.15,7.26,0.24,33.69,12.3,43.08,RUN
42.23753595,-0.3,-0.16,-0.07,62.32,-66.47,-24.17,34.47,9.17,42.02,RUN
42.34744859,2.71,0.48,0.2,-56.21,-5,-48.22,35.94,11.3,41.7,RUN
42.45591855,1.13,0.18,-0.09,-84.53,0.12,8.61,35.21,16.88,42.57,RUN
42.56574249,-0.02,0.16,-0.28,-22.03,21.91,-6.71,34.62,18.65,42.48,RUN
42.676296,2.83,0.09,-0.09,65.43,47.67,3.85,34.25,18.24,42.4,RUN
42.78460479,1.72,-0.1,0.05,36.07,48.1,7.32,35.03,13.28,42.53,RUN
42.89531755,-0.27,-0.19,-0.13,38.15,0.24,0.85,34.14,11.41,43.42,RUN
43.00489163,0.35,-0.25,-0.07,-36.19,-13.98,-6.04,36.19,9.75,41.02,RUN
43.11406183,2.08,0.09,-0.07,-120.42,4.39,-15.14,35.42,15.59,41.52,RUN
43.22543764,0.38,0.05,-0.26,-82.95,4.7,25.76,35.06,20.08,42.61,RUN
43.33376575,-0.16,-0.01,-0.23,11.96,-46.45,-16.6,36.23,21.91,39.97,RUN
43.44356132,3.12,0.81,-0.12,73.06,-5.98,-7.51,35.8,20.69,40.84,RUN
43.55386305,0.57,-0.08,-0.06,48.71,24.35,-13.98,34.46,14.82,42.91,RUN
43.66354322,-0.16,-0.16,-0.27,2.44,-13.61,-18.8,33.7,12.78,44.17,RUN
43.77371836,2.39,0.54,0.26,-49.01,-10.68,-28.75,36.17,14.51,42.47,RUN
43.88314295,1.36,0.08,0,-79.04,10.93,-5.55,35.57,19.67,41.76,RUN
43.99291062,0.12,0.09,-0.19,-41.38,27.47,1.53,35.03,22.24,41.19,RUN
44.10257745,0.54,0.16,-0.24,59.2,-24.35,-2.62,36.71,21.86,41.03,RUN
44.21385217,1.79,-0.19,0.06,85.02,63.84,49.13,36.06,17.53,40.72,RUN
44.32361341,0.2,0.09,-0.12,65.61,22.95,6.41,33.79,14.54,43.36,RUN
44.43441415,0.1,-0.04,-0.16,-28.26,-35.46,-13.79,34.46,13.79,42.98,RUN
44.54391694,2.57,-0.34,-0.23,-50.23,-24.78,-13.92,35.49,18.33,42.69,RUN
44.65416551,0.77,0.11,-0.16,-43.58,10.99,-1.95,34.33,21.62,43.32,RUN
44.76443172,-0.43,0.13,-0.35,23.74,-48.34,4.03,35.1,22.52,42.83,RUN
44.87452388,1.72,0.26,-0.21,43.33,-15.56,-3.23,35.97,19.74,43.38,RUN
44.98399186,0.86,-0.28,-0.02,59.51,26.92,6.77,35.66,13.17,44.75,RUN
45.09391522,0.01,-0.28,-0.22,-2.81,4.03,-11.6,33.52,11.25,44.78,RUN
45.20406294,1.62,-0.73,0.52,-4.76,-66.71,-17.15,36.34,11.8,44.37,RUN
45.31384015,1.45,-0.02,-0.01,-102.29,64.94,0.49,37.06,17.19,43.97,RUN
45.42386794,0.41,0.1,-0.14,-75.74,2.62,1.65,34.22,23.51,43.57,RUN
45.5343833,0.08,0.17,-0.18,54.5,-37.29,-1.59,35.82,23.62,42.97,RUN
45.64432883,1.97,0.93,-0.14,77.88,5.31,21.36,36.22,20.14,43.07,RUN
45.75333762,0.32,0.18,-0.05,78.8,14.53,-12.76,34.24,13.43,46.24,RUN
45.86231279,0.05,-0.1,0.05,-2.56,-38.57,-20.51,34.94,10.34,45.61,RUN
45.97230387,3.09,-0.19,-0.22,-43.82,-31.92,-30.94,37.24,14.55,45.62,RUN
46.08321881,0.7,0.11,-0.19,-63.6,7.81,11.84,36.52,20.94,44.07,RUN
46.19237041,-0.43,0.02,-0.38,-8.79,-34.12,-3.6,35.1,23.88,43.16,RUN
46.30174041,1.24,0.17,0.19,64.39,-12.45,12.63,38.17,22.73,41.47,RUN
46.41152358,2.11,0.04,0.03,108.58,38.76,37.05,36.5,18.07,43.42,RUN
46.52069378,-0.37,0.05,-0.3,58.53,31.92,18.01,35.52,11.8,44.93,RUN
46.63039732,0.01,-0.17,0.14,29.3,-79.59,-24.9,35.11,12.54,43.65,RUN
46.74057579,3.25,-0.35,-0.55,-43.52,3.36,-29.97,35.56,17.58,44.62,RUN
46.85034275,0.59,0.07,-0.13,-32.71,-14.65,19.78,34.01,22.75,43.74,RUN
46.96104121,-0.4,0.18,-0.24,-5.49,-23.99,-4.27,32.74,24.61,43.86,RUN
47.07144976,1.84,0.22,0.26,45.1,-65.43,45.04,34.35,22.92,43.91,RUN
47.18049788,1.1,-0.23,0.11,13.79,112.06,9.7,34.47,15.93,44.59,RUN
47.28925967,-0.15,-0.24,-0.12,43.95,-2.93,0.31,32.12,13.61,46.91,RUN
47.40048933,1.36,-0.58,-0.12,-18.92,-56.82,-16.48,33.44,13.42,46.04,RUN
47.50978565,1.67,-0.1,-0.12,-103.03,37.41,1.59,34.08,18.82,44.73,RUN
47.61988521,0.21,0.1,-0.24,-45.9,-2.87,7.02,33.54,23.21,45.47,RUN
47.73040986,0.16,0.03,-0.19,33.14,-45.53,2.32,35.05,23.41,42.11,RUN
47.84003019,2.7,0.79,-0.19,77.15,-0.55,-5.25,35.28,20.98,42.33,RUN
47.94956207,0.48,-0.09,-0.06,63.23,22.16,-7.02,34.17,14.25,44.54,RUN
48.05982113,-0.17,-0.11,-0.19,13.73,-50.29,-28.81,32.87,13,44.12,RUN
48.17132616,2.48,0.31,0.26,-29.91,-15.26,-33.08,35.94,14.2,42.71,RUN
48.28109574,1.24,0.17,-0.11,-86.12,23.32,17.33,33.73,21.11,43.38,RUN
48.38984227,0.03,0.14,-0.27,-35.52,8.3,12.45,33.84,22.89,43.03,RUN
48.50049829,0.82,0.35,-0.13,117.37,-10.5,-2.01,35.06,20.68,41.55,RUN
48.61053348,1.76,0.08,-0.16,86.85,47.79,38.57,35.42,16.13,42.25,RUN
48.72021484,0.03,0.07,-0.09,80.02,16.6,-8.06,32.58,12.4,44.75,RUN
48.83032727,0.04,-0.2,-0.16,-22.58,-33.2,-15.08,33.65,8.8,43.69,RUN
48.93948245,2.49,-0.41,-0.07,-88.5,-30.7,0.12,34.91,16.61,43.66,RUN
49.04994488,0.53,-0.06,-0.29,-68.12,13.67,18.92,34.13,20.52,42.92,RUN
49.16148615,-0.24,0.1,-0.17,32.35,-40.77,-1.59,35.03,22.47,41.86,RUN
49.27101946,1.69,0.06,-0.39,65.73,-18.8,13.55,35.35,21.87,43.92,RUN
49.38117337,0.89,-0.14,-0.11,66.59,21.24,8.91,35.17,15.5,44.37,RUN
49.48970532,0.1,-0.13,-0.12,10.5,-10.01,-10.13,33.59,11.57,43.55,RUN
49.60101771,0.91,-0.69,0.05,-19.17,-43.82,-28.02,35.25,12.74,43.03,RUN
49.71049452,1.69,-0.26,0.03,-88.2,-2.44,28.56,34.31,20.48,44.79,RUN
49.82023072,-0.01,0.07,-0.37,-52.49,33.26,18.49,34.34,21.64,43.12,RUN
49.93021941,-0.06,0.18,-0.18,45.35,-51.33,-10.01,34.83,23.36,42.42,RUN
50.03939557,3.55,1.02,-0.13,72.14,-12.02,-4.58,35.61,21.19,40.37,RUN
50.14996505,0.67,0.02,0,52.73,25.02,-16.78,34.46,16.06,42.85,RUN
50.2597487,-0.15,-0.15,-0.22,8.3,-36.5,-31.98,32.85,13.17,43.77,RUN
50.36956167,2.69,-0.91,-0.2,-59.69,23.86,-25.94,36.01,15.88,44.4,RUN
50.48048687,1.52,-0.09,0.09,-96.98,0.37,14.34,35.85,20.84,42.93,RUN
50.58990407,0.28,0.11,-0.2,-83.44,26.67,-3.97,34.9,23.77,40.86,RUN
50.69900918,0.12,0.08,-0.08,48.52,-34.42,-1.65,35.56,24.45,39.76,RUN
50.80871391,2.34,0.93,-0.35,123.29,-11.78,42.91,34.75,24.4,42.49,RUN
50.91836596,0.23,-0.06,-0.03,72.02,-6.16,-14.16,34.25,15.77,44.67,RUN
51.02804947,-0.2,0.09,-0.16,15.38,-41.56,-31.86,34.03,13.38,44.65,RUN
51.13826466,2.35,0.11,-0.05,-31.92,30.27,-47.36,36.67,16.19,43.03,RUN
51.24786854,0.92,-0.01,-0.16,-70.5,12.51,28.32,34.85,18.98,42.99,RUN
51.35836363,-0.06,0.09,-0.29,-49.32,38.09,-5.19,34.4,20.95,42.26,RUN
51.46815419,0.71,0.07,-0.19,77.58,-29.05,9.77,35.13,21.02,41.92,RUN
51.57699275,1.91,-0.09,-0.06,72.81,67.02,70.37,35.62,17.18,41.53,RUN
51.68572521,-0.2,-0.09,-0.05,28.93,17.27,4.7,34.72,11.29,43.05,RUN
51.79638982,0.02,-0.09,0,7.26,-35.1,-28.63,35.57,11.29,43.25,RUN
51.90620828,2.8,-0.59,-0.15,-79.9,16.78,2.81,35.41,17.03,43.31,RUN
52.01620126,0.35,0.13,-0.24,-44.37,-13.24,6.41,35.45,21.79,42.1,RUN
52.12589002,-0.36,0.12,-0.1,-8.97,-25.39,4.03,34.67,23.58,42.24,RUN
52.2355659,2.08,0.28,-0.24,83.13,-36.19,21.18,36.01,22.46,42.55,RUN
52.34600449,0.71,-0.34,-0.11,60.61,31.98,4.09,36.01,16.69,43.84,RUN
52.45587134,0.15,-0.19,-0.19,50.78,-31.19,-7.26,34.34,11.88,44.4,RUN
52.56577778,1.25,-0.53,-0.03,12.45,2.5,-21.48,36.56,12.73,43.71,RUN
52.67615771,1.32,0.16,0.01,-106.2,60.42,-4.52,34.23,19.32,44.18,RUN
52.78495669,0.34,0.12,-0.2,-88.75,29.36,-2.5,33.22,22.33,44.92,RUN
52.89482594,0.06,0.08,-0.14,42.3,-53.59,-2.99,34.18,24.44,43.09,RUN
53.00417066,2.36,0.95,-0.13,85.94,11.47,0.06,35.51,22.3,42.91,RUN
53.11346984,0.37,0.04,-0.04,54.87,12.15,-9.16,34.97,14.9,44.85,RUN
53.2226541,-0.26,-0.18,-0.14,-16.78,-12.27,-28.69,34.53,12.51,46.06,RUN
53.33303404,2.67,-0.01,-0.14,-60.3,18.13,-34.97,35.35,16.66,44.56,RUN
53.44216013,1,0.06,-0.24,-71.66,-2.62,21.48,34.07,21.74,44.25,RUN
53.55114269,0.14,0.02,-0.06,-54.87,-2.2,-6.9,33.35,23.24,43.33,RUN
53.66089201,1.64,0.22,0.22,85.14,-36.25,-5.43,35.62,24.12,40.88,RUN
53.77054095,1.95,-0.11,0.07,81.54,63.96,24.35,36.07,21.64,43.02,RUN
53.88093185,-0.01,-0.1,-0.06,32.9,6.9,12.82,34.62,15.58,44.38,RUN
53.99120641,0.17,-0.09,-0.03,-9.16,-29.91,-10.8,35.45,14.06,43.25,RUN
54.09984589,2.76,-0.44,-0.22,-84.29,9.58,9.09,35.69,17.65,43.58,RUN
54.20964384,0.54,0.07,-0.22,-50.05,8.67,23.68,33.7,22.35,43.36,RUN
54.31966138,-0.38,0.08,-0.28,11.05,-24.72,-5.13,33.14,22.81,42.19,RUN
54.42996383,2.78,0.48,0.37,13.98,2.08,-1.77,34.51,21.69,41.77,RUN
54.54036045,1.1,-0.22,-0.05,83.25,17.52,12.63,34.53,17.36,43.03,RUN
54.64986396,0.4,-0.17,-0.07,27.4,5.92,13,33.98,10.39,42.54,RUN
54.75952744,0.51,-0.19,0.09,-25.15,-54.14,-10.56,36.29,11.98,41.31,RUN
54.86906099,2.03,-0.2,0.08,-86.79,37.66,1.71,35.38,17.32,42.88,RUN
54.97877979,0.29,0.17,-0.2,-47.55,8,22.22,34.95,19.51,41.31,RUN
55.08943725,-0.17,0.13,-0.16,31.37,-28.08,-18.31,34.06,20.34,40.94,RUN
55.19919538,3.54,0.89,-0.09,78.49,0.92,-42.48,34.28,18.88,43.37,RUN
55.30911732,0.7,-0.04,0,55.66,13.24,-5.49,35.06,12.81,42.46,RUN
55.41890836,0.04,-0.07,-0.23,43.03,-51.33,-29.36,34.2,8.96,41.28,RUN
55.53005743,2.78,-1.02,0.2,-1.22,7.26,-36.68,36.65,10.35,40.14,RUN
55.63967729,1.36,0.14,-0.02,-105.1,2.38,23.56,36.15,16.37,40.94,RUN
55.75057197,0,0.18,-0.32,-66.59,22.22,-6.16,35.29,19.17,40.48,RUN
55.86118555,0.18,0.06,-0.03,28.44,-22.46,7.39,37.89,19.68,38.29,RUN
55.97004604,2.39,0.5,0.4,102.84,-2.08,32.9,37.4,19.6,39.43,RUN
56.07921481,0.7,0.04,-0.02,21.24,29.85,3.72,36.63,11.55,39.83,RUN
56.18914461,-0.39,-0.03,0.06,-3.91,14.1,-4.09,35.58,12.48,40.93,RUN
56.30105948,3.03,0.38,0.29,-16.05,-40.34,-38.57,36.27,14.78,41.77,RUN
56.41008091,1.06,0.14,0.12,-101.2,54.26,20.08,36.04,19.49,41.33,RUN
56.51877522,-0.01,0.19,-0.14,-46.02,28.99,-10.07,34.48,22.56,42.52,RUN
56.63145089,0.79,0.26,-0.41,39.43,21.61,-15.26,34.66,23.79,40.55,RUN
56.74012113,1.84,0.15,-0.01,107.67,5.43,40.89,35.13,19.25,42.26,RUN
56.84985137,-0.57,-0.12,-0.02,24.35,14.4,6.53,34.29,14.49,43.14,RUN
56.95984364,0.03,0,0.08,17.4,-57.8,-13.31,34.74,14.53,43.64,RUN
57.06905007,2.84,-0.35,-0.08,-81.3,32.47,1.22,34.62,19.87,44.58,RUN
57.17852998,0.67,-0.07,-0.23,-44.56,-5.74,23.32,33.3,23.22,43.93,RUN
57.28928471,-0.35,0.01,-0.21,0.06,-13.73,4.46,32.7,24.46,44.46,RUN
57.39905572,3.42,0.39,-0.1,44.62,-52.67,42.48,34.86,22.33,42.75,RUN
57.50809646,1.67,-0.03,0.17,73.73,83.62,6.53,34.39,16.44,44.57,RUN
57.61754107,0.36,-0.08,-0.11,28.69,8.3,2.5,33.92,12.59,44.81,RUN
57.72710538,0.25,-0.12,-0.11,11.05,-51.57,-22.77,34.61,14.44,44.42,RUN
57.83694935,2.18,-0.46,-0.13,-93.02,13.61,27.65,34.62,18.14,45.28,RUN
57.94738555,0.03,0.01,-0.25,-43.76,-7.51,19.17,34.25,20.7,43.04,RUN
58.05653167,-0.18,0.07,-0.11,18.01,-26.49,0.12,33.64,22.86,43.3,RUN
58.16718769,3.22,0.9,-0.29,75.26,-38.82,-42.85,36.24,19.96,42.38,RUN
58.27739978,0.62,-0.18,-0.11,49.87,26.12,-6.53,34.41,13.04,45.31,RUN
58.38738155,-0.15,-0.18,-0.11,11.6,-15.26,-26.86,33.31,11.02,45.61,RUN
58.49673891,2.99,-0.38,-0.11,-37.6,-47.73,-32.53,35.8,13.26,45.1,RUN
58.60792732,1.36,0.14,0.01,-110.53,63.9,21.18,35.75,19.75,44.64,RUN
58.7168715,-0.05,0.26,-0.11,-49.99,4.94,-1.1,33.98,21.59,44.21,RUN
58.82705641,0.62,0.17,-0.29,70.19,-48.03,-6.35,36.06,21.94,42.32,RUN
58.93652892,1.87,0.13,-0.21,78,26.61,33.14,35.62,17.91,44.02,RUN
59.04699779,0.08,-0.17,0,45.78,4.39,12.51,35.6,12.83,42.46,RUN
59.15622234,-0.33,-0.03,0.07,27.22,-58.47,-37.35,35.96,13.04,42.44,RUN
59.26602101,2.75,-0.25,0.18,-106.08,39,-41.38,37.68,15.95,41.77,RUN
59.37583995,0.48,-0.15,0.04,-62.01,-13.73,37.41,36.06,21.22,41.1,RUN
59.48690557,-0.22,0.1,-0.24,-5.19,-50.23,-23.13,35.29,22.78,39.64,RUN
59.59713984,2.34,0.13,0.01,71.96,43.52,30.94,38.46,21.18,38.09,RUN
59.70667386,1.46,-0.11,0.21,43.21,38.27,41.75,36.35,15.53,43.19,RUN
59.81724977,1.03,-0.24,-0.26,8.91,64.03,14.65,35.55,10.44,43.69,RUN
59.92569256,0.91,-0.37,0.47,40.1,-57.68,-27.16,35.21,13.02,45.64,RUN
60.03624654,1.71,-0.18,-0.02,-90.52,46.69,29.85,35.89,16.85,45.29,RUN
60.14538956,0.29,0.17,-0.18,-33.63,11.96,3.91,34.97,17.94,44.85,RUN
60.25578499,0.28,0.23,-0.15,19.9,-40.1,1.1,34.33,21.17,44.41,RUN
60.36640549,3.03,1.27,-0.18,70.31,12.94,1.16,35.95,18.24,42.64,RUN
60.47566366,0.56,-0.03,-0.15,40.65,13.73,-21.3,34.36,12.44,45.34,RUN
60.58579087,-0.25,-0.03,-0.16,8.97,-30.76,-51.27,33.46,11.67,44.35,RUN
60.69524956,3.56,-0.41,-0.13,-67.2,-5.49,-33.26,36.66,13.51,44.21,RUN
60.80613136,1.39,0.25,-0.08,-70.01,13.49,28.26,35.58,19.27,43.57,RUN
60.91439748,-0.05,0.02,-0.3,-31.01,28.87,-3.17,33.58,21.87,43.14,RUN
61.0255847,0.42,0.18,-0.24,53.22,-31.07,-9.22,35.16,21.25,41.28,RUN
61.13614798,1.96,0.39,-0.3,93.14,70.74,10.01,35.83,18.95,42.64,RUN
61.24622107,0.17,-0.09,-0.08,51.57,15.08,-7.75,34.19,13.88,44.15,RUN
61.3546524,-0.15,-0.11,0.17,-37.96,-34.3,-15.63,34.27,11.62,44.08,RUN
61.46497226,2.79,-0.05,-0.21,-53.41,-5.49,-9.52,34.78,15.71,44.23,RUN
61.5745101,0.74,0.03,-0.17,-66.83,-4.03,7.26,33.64,20.45,43.33,RUN
61.68477392,-0.34,0.06,-0.23,-30.76,-16.11,-5.19,33.35,24.16,43.16,RUN
61.79442835,3.51,0.19,-0.1,14.04,4.21,24.05,35.4,22.56,41.17,RUN
61.90516043,1.81,-0.02,0.11,104.74,9.83,14.71,35.5,16.83,43.68,RUN
62.01445436,1.27,-0.29,-0.08,-2.01,40.16,-2.08,35.05,12.33,42.49,RUN
62.12466288,0.32,-0.27,-0.1,15.44,-81.85,-11.35,35.61,14.78,43.29,RUN
62.23458099,2.1,-0.36,-0.09,-83.86,15.01,17.52,36.07,18.53,44.34,RUN
62.34464884,-0.14,-0.04,-0.14,-39.49,9.83,25.82,35.85,20.94,42.24,RUN
62.454844,-0.11,0.14,-0.11,36.93,-36.13,-2.08,35.47,22.24,40.73,RUN
62.56603432,2.91,0.95,-0.29,40.77,5.31,-30.76,36.84,20.36,40.66,RUN
62.67502332,0.79,-0.22,0.02,64.88,-4.09,-7.39,35.91,14.04,43.46,RUN
62.78467035,-0.16,-0.04,-0.19,4.09,-22.83,-20.2,34.84,11.88,43.02,RUN
62.89518309,2.47,-0.42,-0.42,-23.44,60.91,-43.88,38.34,13.95,40.04,RUN
63.00535798,1.45,0.18,-0.01,-86.98,-11.9,21.12,35.56,20.83,43.07,RUN
63.11616755,0.33,0.03,-0.32,-56.27,51.33,-3.72,35,21.5,42.7,RUN
63.224787,0.65,0.28,-0.01,61.58,-47.36,6.47,35.56,22.08,40.97,RUN
63.33523035,2.01,-0.04,-0.02,62.01,72.94,18.49,36.88,18.52,41.15,RUN
63.44560337,0.06,-0.07,0,46.75,9.22,-4.21,34.34,15.05,43.54,RUN
63.55597043,0.02,-0.08,-0.14,-30.58,-37.17,-22.58,34.33,13.27,44.23,RUN
63.66693926,2.79,-0.44,-0.2,-85.82,-12.33,17.15,36.35,19.74,43.66,RUN
63.77656507,0.57,0.12,-0.16,-50.05,-5.19,20.02,35.25,22.92,42.64,RUN
63.88722277,-0.54,0.08,-0.21,0.49,-27.83,6.53,34.77,23.63,42.54,RUN
63.99735761,2.69,0.24,0.23,16.3,-3.11,13.18,35.8,22.41,41.22,RUN
64.1083467,1.3,-0.13,0.02,74.52,16.6,13.18,35.5,17.54,43.59,RUN
64.21690869,0.1,-0.12,-0.05,-18.98,11.23,-24.41,34.88,13.09,42.57,RUN
64.32671785,0.16,-0.83,-0.2,-43.03,-54.5,-34.85,36.88,14.58,42.59,RUN
64.43689823,1.73,-0.32,0.05,-124.76,22.89,17.7,36.08,20.37,44.08,RUN
64.54645324,-0.3,0.07,-0.27,-111.15,34.91,54.26,35.44,23.73,40.34,RUN
64.65685344,0.17,0.12,0.03,88.44,-67.2,-13.73,35.13,24.07,40.59,RUN
64.76776266,2.3,0.55,-0.07,94.24,13.98,16.36,36.82,21.4,40.43,RUN
64.87878728,0.63,0.03,-0.17,52,40.95,-10.13,35.3,15,41.87,RUN
64.99019527,-0.28,-0.05,-0.17,-19.35,-7.08,-22.4,33.85,15.54,44.78,RUN
65.10129189,2.6,-0.45,-0.33,-42.6,-17.52,-11.84,34.72,19.64,43.81,RUN
65.21057343,0.92,0.02,-0.24,-53.89,-8,24.11,35.08,23.65,42.8,RUN
65.32089496,-0.25,0.08,-0.31,-13.98,-45.1,-3.36,35.77,24.9,40.67,RUN
65.43258691,3.14,0.14,-0.17,33.63,39.25,42.54,39.23,23.57,37.77,RUN
65.54214025,1.42,-0.01,0.1,89.23,9.28,18.07,37.81,18.6,40.55,RUN
65.65200686,0,-0.17,-0.13,26.43,77.03,9.34,37.52,12.99,42.66,RUN
65.76056743,0.25,-0.1,-0.05,20.14,-46.02,-40.04,38.94,12.5,40.17,RUN
65.87065506,2.37,-0.27,0.23,-73.85,-11.11,10.19,37.61,16.44,41.08,RUN
65.98056817,0.94,-0.17,-0.11,-92.29,35.28,79.47,39.17,17.35,38.72,RUN
66.09120059,-0.02,-0.01,0.06,88.07,-67.87,-34.85,39.21,19.67,38.49,RUN
66.20122147,3.79,1.11,-0.03,61.34,4.46,-14.34,38.26,18.01,41.19,RUN
66.30974722,-0.22,-0.25,0.05,59.2,-13.43,-5.31,38.61,11.44,40.2,RUN
66.41940451,-0.08,0,-0.24,-48.46,7.69,-52.92,38.88,11.28,39.89,RUN
66.5300343,3.53,-0.67,0.44,56.4,30.21,-32.78,38.23,15.22,41.48,RUN
66.63990426,1.1,-0.01,0.01,-81.12,54.2,26.67,38.22,18.05,39.84,RUN
66.75065565,-0.79,-0.04,-0.31,-23.62,-10.5,-33.57,37.38,19.8,39.6,RUN
66.86047554,1.05,0.14,0.21,-18.92,120.24,25.57,39.18,20.12,37.3,RUN
66.97069001,1.93,-0.09,-0.02,95.34,14.28,47.91,36.07,20.32,42.74,RUN
67.08088732,-0.54,0.05,-0.29,29.36,8.06,18.31,35.11,12.85,42.43,RUN
67.19051528,-0.47,-0.03,-0.26,-2.81,-21.42,-19.29,33.26,16.49,45.08,RUN
67.3021965,2.55,-0.33,-0.09,-86.49,23.62,2.01,34.16,18.77,44.6,RUN
67.4125576,0.59,-0.01,-0.23,-47.67,-7.39,19.17,34.09,21.36,43.73,RUN
67.522475,-0.36,0.19,-0.13,0.98,-45.96,-3.91,33.9,22.52,42.03,RUN
67.63292122,1.73,-0.08,-0.07,35.4,-33.2,17.21,36.36,21.34,40.83,RUN
67.74267888,1.11,-0.2,0.1,70.25,19.47,9.64,36.1,13.46,42.86,RUN
67.85114789,0.24,-0.14,-0.14,1.34,55.6,0.12,34.56,11.35,43.74,RUN
67.96084404,0.73,-0.51,0.1,-6.71,-31.13,-15.2,36.98,13.33,43.15,RUN
68.07117558,1.94,-0.12,0.21,-106.93,17.76,13.49,35.35,17.57,44.24,RUN
68.18068147,0.48,0.09,-0.39,-33.02,16.66,18.86,35.56,19.53,41.86,RUN
68.28991008,0.23,-0.01,-0.03,53.71,-44.25,-4.15,36.4,20.36,41.91,RUN
68.40305734,2.19,0.7,-0.15,83.86,10.5,15.69,37.22,19.43,42.54,RUN
68.51184821,0.36,0.05,-0.02,45.65,-1.16,-7.69,36.73,12.05,43.27,RUN
68.62183309,-0.33,-0.24,-0.06,60.61,-56.15,-52.73,36.76,11,41.24,RUN
68.73173642,2.62,0.54,-0.17,-37.84,14.22,-15.63,36.83,13.98,45.08,RUN
68.84206057,1.11,-0.15,-0.05,-76.9,-28.14,36.62,37.11,16.88,44.25,RUN
68.95139623,-0.52,0.05,-0.27,-63.05,-24.96,-34.06,36.85,19.08,43.98,RUN
69.06223965,0.61,-0.12,0.11,14.22,0.37,-5.55,41.15,22.36,37.1,RUN
69.17142892,1.85,-0.2,0.1,80.14,3.85,57.86,37.35,18.82,42.27,RUN
69.28089333,2.43,-0.51,-0.5,-132.26,141.78,-2.38,37.35,13.07,41.65,RUN
69.39086795,0.09,-0.04,0.07,-84.47,30.52,5.74,37.94,15.59,41.74,RUN
69.50143695,2.97,-0.22,-0.04,-33.94,-18.01,10.01,37.28,19.7,43.04,RUN
69.61226225,0.97,-0.07,-0.57,-98.82,80.51,34.36,36.1,22.06,41.63,RUN
69.72200394,-0.13,0.11,-0.09,57.13,-88.2,-13.24,35.05,22.94,42.19,RUN
69.83170557,2.38,0.35,-0.16,-1.65,16.3,-22.03,35.5,23.12,43.75,RUN
69.94046593,1.44,-0.12,0.02,87.22,11.47,14.77,34.9,16.22,43.84,RUN
70.04943466,0.12,0.02,0.12,-93.08,64.15,-47.3,34.01,13.38,44.23,RUN
70.16002917,0.35,-0.45,-0.54,-67.93,15.01,-2.99,36.66,14.04,42.46,RUN
70.26943636,1.99,-0.26,0.12,-62.19,4.46,2.38,34,18.76,44.74,RUN
70.37966681,0.04,0.03,-0.41,-29.6,38.7,16.17,33.63,21.31,44.07,RUN
70.49044323,0,0.11,-0.12,24.66,-42.18,-2.01,32.09,23.8,44.21,RUN
70.59881139,2.85,0.57,-0.11,39.86,22.03,-7.81,34.84,21.47,42.99,RUN
70.71097636,0.83,-0.19,-0.03,74.4,1.89,-17.64,34.08,15.61,43.96,RUN
70.82053447,-0.32,-0.21,-0.23,-1.1,-26.12,-14.4,33.51,13.78,45.01,RUN
70.93034601,2.18,0.1,-0.2,-53.53,29.3,-24.72,36.08,15.14,42.21,RUN
71.03988481,1.31,0.05,-0.06,-59.2,7.32,-2.38,34.48,20.1,44.41,RUN
71.15129662,0.49,-0.04,-0.61,-25.15,58.29,3.91,34.16,21.7,43.62,RUN
71.26130056,0.67,0.28,-0.21,111.94,-57.43,5.62,35.03,20.86,43.1,RUN
71.37127161,1.64,0.03,-0.34,103.33,59.57,20.45,34.56,16.26,42.86,RUN
71.48141861,0.09,0.01,-0.07,59.88,8.79,-13.43,32.62,12.12,45.98,RUN
71.59122133,0.02,-0.08,-0.14,-47.67,-15.14,-3.85,34.58,10.99,43.69,RUN
71.70107174,2.82,-0.24,0.03,-63.9,-4.52,-6.65,35.94,14.16,43.29,RUN
71.80930495,0.54,-0.11,-0.17,-50.9,19.9,10.99,34.45,18.52,44.18,RUN
71.92029619,-0.4,0.17,-0.47,-0.67,-52.43,4.64,33.5,21.73,44.1,RUN
72.02994156,1.38,0.26,-0.37,31.92,-50.35,12.33,35.11,19.73,42.48,RUN
72.14022565,1.03,-0.11,0.03,45.84,9.4,-5.49,35.18,13.99,43.26,RUN
72.24989653,0.14,-0.18,-0.19,10.56,4.52,-19.53,33.98,11.79,44.46,RUN
72.36023664,1.77,-0.7,0.01,-58.9,-0.61,-8.42,35.88,13.45,41.61,RUN
72.46943879,1.82,-0.09,0.03,-92.83,23.44,15.63,34.83,18.59,43.65,RUN
72.5799365,0.35,0.15,-0.26,-42.24,20.69,27.83,34.59,22.12,41.74,RUN
72.68901372,0.08,-0.04,0.02,43.88,-21.55,-17.58,35.18,22.44,42.24,RUN
72.79869461,2.33,0.44,-0.57,117.61,33.51,11.66,34.06,19.12,44.48,RUN
72.90829778,0.3,-0.03,0.01,57.37,17.88,-19.96,32.87,13.56,45.7,RUN
73.01801419,-0.19,-0.12,0,-13.79,-13.12,-15.38,32.95,11.71,46.74,RUN
73.1292181,2.31,-0.05,-0.12,-31.8,-32.59,-14.71,33.94,14.22,45.43,RUN
73.23890233,0.82,0,-0.2,-63.05,3.54,14.59,33.81,18.91,45.26,RUN
73.34811568,-0.13,0.14,-0.21,-36.44,-5.68,11.05,33.15,21.37,44.52,RUN
73.45822096,4,0.06,0.13,19.96,52.61,22.58,34.29,20.07,44.64,RUN
73.56662989,1.41,-0.01,-0.03,63.72,36.38,5.8,34.13,13.73,45.43,RUN
73.67662048,0.01,-0.11,-0.06,23.99,-5.37,4.33,33.54,10.86,45.2,RUN
73.78589249,0.43,-0.23,-0.07,-4.88,-52.8,-12.45,36.12,10.79,43.19,RUN
73.89628267,1.88,-0.19,-0.05,-109.31,24.96,16.17,36.72,15.58,44.32,RUN
74.00590086,-0.06,0.07,-0.3,-48.1,15.63,25.7,35.4,18.55,43.54,RUN
74.11617494,-0.06,0.06,0,51.57,-44.49,-6.65,35.86,20.72,42.64,RUN
74.2251761,2.69,0.78,-0.27,47.36,5.49,-11.78,36.18,19.98,44.37,RUN
74.33410764,0.88,-0.04,-0.07,74.65,6.71,-5.25,35.36,14.09,44.18,RUN
74.44371724,-0.23,-0.05,-0.08,1.77,-0.37,-44.37,34.33,10.72,43.93,RUN
74.55369353,2.94,-0.71,-0.24,-38.7,48.16,-13.24,37.46,12.16,42.16,RUN
74.66358256,1.22,0,-0.09,-76.9,12.33,37.6,35.86,17.19,44.31,RUN
74.77427578,0.51,0.06,-0.2,-96.8,32.04,-0.49,34.47,20.69,43.32,RUN
74.88402319,0.58,0.34,-0.15,89.78,-60.61,1.16,36.79,20.95,41.74,RUN
74.99419522,2.01,0.2,0,76.97,57.62,29.24,35.71,18.31,42.31,RUN
75.10279799,-0.02,-0.02,-0.05,45.53,4.64,-2.26,35.28,13.27,42.36,RUN
75.21375179,-0.15,-0.06,-0.05,-1.89,-65.06,-10.19,34.5,13.12,43.47,RUN
75.32414293,2.85,-0.41,-0.08,-63.9,30.21,-6.29,36.5,16.36,41.74,RUN
75.43419504,0.59,0,-0.17,-41.02,-0.12,12.02,34.34,21.25,43.91,RUN
75.54410219,-0.4,0.08,-0.24,-50.35,2.99,2.44,34.31,23.4,42.94,RUN
75.65256262,1.7,0.41,-0.16,78.67,-30.46,20.57,34.3,22.34,42.63,RUN
75.76256824,0.92,-0.29,0.12,9.28,114.32,8.61,33.58,15.43,45.4,RUN
75.8730824,0.16,-0.17,-0.16,64.7,-63.29,4.33,30.58,12.76,47.29,RUN
75.9825418,1.19,-0.46,-0.07,-35.1,5.31,-23.62,35.06,11.57,43.42,RUN
76.09270167,1.72,-0.15,-0.05,-121.58,34.36,-1.53,34.08,16.82,44.9,RUN
76.20273471,0.36,-0.02,-0.14,-64.82,35.77,8.97,31.36,22.97,45.29,RUN
76.3134501,0.1,0.19,-0.22,40.1,-66.65,0.73,33.06,23.83,43.87,RUN
76.42228198,3.05,1.09,-0.15,83.44,-17.52,-21.91,33.65,20.97,44.13,RUN
76.53227425,0.59,0,-0.15,55.6,20.57,-7.2,32.87,12.59,44.85,RUN
76.64318848,-0.18,-0.23,-0.17,0.24,-32.23,-49.62,33.34,8.81,43.15,RUN
76.75285625,2.69,-0.34,-0.06,-53.59,-2.93,-61.89,36.82,12.27,42.65,RUN
76.86322308,1.36,0.1,-0.02,-105.41,29.48,5.8,34.81,21.45,44.04,RUN
76.97235727,0.28,0.11,-0.23,-51.57,25.09,-1.65,33.83,22.85,43.38,RUN
77.08309555,0.3,0.23,-0.31,87.16,-54.93,10.07,35.13,21.41,43.42,RUN
77.19202638,1.93,0.25,-0.27,107.42,48.71,63.9,35.1,18.63,44.49,RUN
77.30215669,0.27,0.08,-0.13,69.82,-1.04,-4.46,32.6,11.56,46.14,RUN
77.41110897,-0.31,-0.02,-0.11,-30.76,-27.28,-9.03,32.91,9.03,44.34,RUN
77.52257824,2.73,-0.17,-0.15,-65.37,-8.91,-0.24,35.5,14.98,43.38,RUN
77.63311887,0.72,0.21,-0.24,-74.52,13.55,0.49,33.67,20.53,44.03,RUN
77.74244618,-0.1,0.15,-0.38,-17.94,1.95,5.68,32.23,23.13,44.24,RUN
77.85281181,2.02,0.45,-0.11,53.65,-34.67,9.09,34.44,21.04,41.64,RUN
77.96308422,1.19,-0.41,0.11,43.46,65.73,27.34,35.18,14.48,43.47,RUN
78.07288456,0.06,-0.11,-0.11,35.52,2.14,-13.92,32.96,12.11,45.12,RUN
78.18420529,0.58,-0.28,-0.37,-24.11,-44.56,-9.64,34.85,11.21,43.65,RUN
78.29340243,1.76,0.15,0.3,-74.1,29.6,9.64,35.44,17.52,43.76,RUN
78.40257192,0.45,0.16,-0.14,-75.5,15.2,-0.12,34.69,19.46,42.43,RUN
78.5123446,-0.06,0.01,-0.22,22.95,-14.16,-12.76,35.27,20.69,41.83,RUN
78.6235733,2.67,0.53,-0.2,90.27,0.06,-8.67,34.41,19.35,43.65,RUN
78.7333765,0.78,-0.17,-0.09,73.36,17.88,-6.04,34.53,12.06,43.87,RUN
78.84356976,-0.47,-0.32,-0.2,-19.17,-6.59,-43.64,33.31,8.98,43.93,RUN
78.95526719,3.3,-0.5,0.02,-68.91,105.29,-2.38,36.13,11.12,44.67,RUN
79.06461668,1.25,0.08,-0.19,-91,0.49,11.11,35.18,16.16,44.32,RUN
79.17526555,0.31,0.22,0.13,-101.62,41.69,-1.1,34.95,19.8,43.8,RUN
79.28470635,0.7,0.24,0,106.99,-83.5,-5.86,36.06,21.33,42.11,RUN
79.39457393,1.99,0.29,-0.14,79.1,38.27,42.3,34.79,19.41,44.95,RUN
79.50475264,0.14,0.03,-0.07,65.25,-3.66,-5.74,33.4,12.45,46.19,RUN
79.61494565,0.01,0.03,-0.05,26.92,-49.19,-24.72,35,10.36,45.03,RUN
79.72450995,2.38,-0.12,-0.03,-91.49,34.67,-22.77,36.89,13.29,44.12,RUN
79.83487725,0.92,0.05,-0.22,-73.73,-14.77,12.39,35.91,19.08,42.26,RUN
79.94481063,-0.3,0.25,-0.19,-4.94,-30.64,-4.46,35.91,21.29,43.7,RUN
80.05349612,3.34,0.21,-0.17,-1.95,47,3.91,37.7,20.78,40.48,RUN
80.16360164,1.53,-0.01,0.05,72.63,19.1,20.57,36.61,19.67,43.79,RUN
80.27387166,0.55,-0.11,-0.34,7.75,48.4,10.93,35.75,13.72,42.19,RUN
80.38391447,0.32,-0.15,0.01,8.54,-81.3,-9.34,37.28,14.88,43.3,RUN
80.4938786,2.03,-0.25,0.03,-97.11,9.16,15.81,35.47,20.08,43.55,RUN
80.60246277,0.29,0.05,-0.16,-42.48,-6.65,25.7,35.03,22.9,42.41,RUN
80.71272922,-0.49,0.12,-0.1,-5.98,-70.37,2.5,34.23,23.83,41.77,RUN
80.82275844,2.63,0.52,-0.13,19.9,12.51,-6.41,35.33,22.53,40.04,RUN
80.93317866,0.84,-0.2,0.02,52.37,32.17,-2.32,35.02,17.91,42.09,RUN
81.04229116,0.33,-0.18,-0.19,-9.46,38.88,-5.68,33.69,13.81,44.17,RUN
81.15299749,2.48,-0.58,0.15,-27.89,-2.32,-16.97,34.52,16.04,43.65,RUN
81.26225185,1.43,0.05,-0.05,-104.86,62.38,-5.98,33.92,21.29,43.02,RUN
81.37242246,0.24,0.16,-0.19,-67.5,21.24,3.23,33.17,25.24,43.57,RUN
81.48234963,0.32,0.06,-0.17,31.13,-41.5,3.78,33.22,27.37,41.74,RUN
81.59130669,1.95,0.67,-0.29,109.44,15.56,26.92,34.83,24.54,42.46,RUN
81.70057821,0.21,0.11,-0.16,76.42,26.98,-14.83,34.83,13.61,46.47,RUN
81.81086206,-0.17,-0.19,-0.3,9.28,-23.07,-29.6,35.67,11.77,42.52,RUN
81.92061782,2.89,-0.43,-0.27,-49.68,10.86,-22.22,36.34,16.91,44.86,RUN
82.03093886,0.82,0.23,-0.21,-51.03,3.3,15.5,34.22,21.53,46.35,RUN
82.13929605,-0.4,0.06,-0.22,-18.37,-27.83,-1.53,33.29,22.51,45.5,RUN
82.24933076,2.28,-0.08,0.06,52.67,2.93,18.55,36.93,20.68,42.9,RUN
82.36091876,1.62,-0.31,0.15,92.77,49.07,41.63,35.83,17.76,43.25,RUN
82.46927476,1.23,0.02,-0.45,3.91,63.48,11.78,35.03,9.62,45.41,RUN
82.57948494,0.17,-0.14,0.1,48.77,-87.1,-11.96,36.12,11.38,44.07,RUN
82.69005203,2.09,-0.39,-0.17,-72.2,10.19,11.66,35.79,16.37,46.73,RUN
82.79919672,0.25,-0.03,-0.16,-54.99,10.19,27.89,34.68,20.13,43.73,RUN
82.910151,-0.34,0.16,-0.28,-14.16,-34.73,-1.04,33.19,23.05,44.25,RUN
83.02016926,1.74,-0.03,-0.36,24.72,11.96,-0.37,36.04,22.06,42.24,RUN
83.12929797,0.93,-0.17,-0.14,73,24.84,3.78,34.35,14.81,46.06,RUN
83.23950696,0.67,-0.24,-0.27,-18.86,37.9,-1.46,33.22,11.73,45.21,RUN
83.34906054,0.7,-0.4,-0.05,33.26,-108.46,-12.27,35.73,12.82,44.03,RUN
83.45817971,1.66,-0.19,0.03,-102.72,59.94,5.19,35.56,18.13,43.42,RUN
83.56868219,0.22,0.08,-0.13,-39.18,3.6,4.7,33.73,21.87,42.77,RUN
83.67675853,-0.15,0.12,-0.18,-3.42,-39.18,-5.49,33.4,24.17,43.71,RUN
83.78772354,3.69,0.67,-0.14,85.51,-26.67,-0.73,35.1,24.05,41.66,RUN
83.89625239,0.85,-0.06,0.02,59.69,32.29,1.89,34.78,14.37,44.6,RUN
84.00550127,0.02,-0.18,-0.16,46.02,-70.86,-26.43,34.83,9.81,42.96,RUN
84.11665392,2.63,-0.68,0.01,-53.89,9.46,-35.64,38.34,11.73,42.44,RUN
84.22628284,1.5,-0.09,0.22,-84.9,26,1.16,36.55,19.92,42.72,RUN
84.33768582,0.33,0,-0.12,-89.36,11.23,-12.63,34.85,23.08,43.49,RUN
84.44799662,0.18,0.12,-0.13,26.49,-50.17,30.76,36.57,23.67,40.72,RUN
84.55865788,2.01,0.82,-0.11,68.6,10.62,25.39,36.13,19.91,43.44,RUN
84.66885209,0.11,-0.07,-0.13,77.03,-6.1,3.6,34.95,12.96,43.18,RUN
84.77854323,-0.62,-0.17,-0.15,-19.59,-19.1,-31.13,33.89,13.2,44.53,RUN
84.88960934,2.89,-0.08,-0.15,-35.95,40.77,-51.15,35.38,16.87,42.94,RUN
85.0000155,0.88,0,-0.16,-66.41,14.71,15.75,33.57,20.74,44.17,RUN
85.10997891,0.06,0.11,-0.27,-60.3,2.38,-0.31,33.18,24.06,43.59,RUN
85.21913505,2.44,0.48,-0.08,18.8,15.75,29.91,33.91,24,42.43,RUN
85.32842278,1.33,-0.25,0.03,95.83,113.77,29.72,35.02,16.6,44.31,RUN
85.43766761,0.09,-0.04,-0.1,83.07,33.51,4.03,31.98,11.96,45.83,RUN
85.54763937,0.28,-0.21,-0.24,-9.89,-44.86,-12.82,34.12,9.05,44.02,RUN
85.65737128,1.98,-0.45,-0.26,-122.68,-19.1,9.09,34.46,15.7,45.32,RUN
85.76829982,0.46,-0.04,-0.2,-79.22,23.32,8.48,32.89,21.85,45.23,RUN
85.87840128,-0.17,0.12,-0.3,17.76,-62.38,3.97,34.64,24.82,42.98,RUN
85.98875117,2.76,0.41,-0.55,73.43,5.43,-18.37,36.52,21.4,43.42,RUN
86.10012913,0.83,-0.18,-0.09,91.13,45.9,14.22,34.58,11.54,46.55,RUN
86.20934463,0.16,-0.12,-0.28,30.27,-0.12,-0.92,30.91,5.97,46.45,RUN
86.31979895,1,-0.36,-0.73,7.32,-129.39,-21.18,33.15,7.57,47.81,RUN
86.42943406,1.55,-0.01,-0.17,-128.54,77.51,3.72,35.9,13.33,46.06,RUN
86.5393281,0.27,0.09,-0.24,-65.06,-2.75,5.49,31.48,19.03,48.47,RUN
86.64980435,0.23,0.14,-0.1,54.14,-55.48,-2.56,33.92,19.48,45.4,RUN
86.75988078,2.9,1.13,-0.01,77.21,-10.74,-5.25,35.13,16.77,44.2,RUN
86.86981988,0.46,-0.06,-0.09,49.44,-2.26,-6.1,35.84,9.56,44.58,RUN
86.97933984,-0.15,-0.12,-0.16,5.19,-49.19,-23.5,36.39,7.98,41.31,RUN
87.08981013,2.89,-0.42,0.14,-91.06,55.6,-35.52,40.55,10.23,38.18,RUN
87.20001435,1.34,-0.14,0.22,-111.39,-36.5,23.93,39.26,16.17,39.93,RUN
87.31035376,-0.13,0.22,-0.32,-46.69,-17.33,-8.73,39.55,20.48,35.88,RUN
87.42031384,0.12,0.16,-0.1,29.66,4.21,-1.4,40.1,21.01,33.52,RUN
87.53097701,2.47,0.38,0.45,48.46,22.95,17.09,38.68,20.26,37.55,RUN
87.64041972,-0.32,-0.04,-0.13,62.26,27.04,37.41,38.54,14.32,38.39,RUN
87.75086474,-0.08,0.01,-0.05,11.66,-15.75,-31.56,37.68,10.97,39.9,RUN
87.8617425,2.48,0.11,0.23,-25.63,-1.16,-49.32,39.43,12.17,40.26,RUN
87.971766,1.08,-0.1,-0.09,-87.65,-1.89,24.05,37.5,18.54,41.2,RUN
88.0828948,-0.34,0.16,-0.21,-43.21,-34.06,0.24,37.5,20.64,38.62,RUN
88.19246364,0.88,0.16,0.18,51.7,35.4,-21.79,39.79,21.95,36.06,RUN
88.30188751,2.15,0.03,0.05,121.83,-4.88,30.7,37.48,19.65,40.94,RUN
88.41143131,-0.78,-0.35,-0.19,-14.34,39.12,23.86,38.26,12.84,38.93,RUN
88.52157092,0.28,0.04,-0.09,72.57,-71.59,-33.75,39.04,11.21,38.57,RUN
88.63076949,2.82,-0.33,0.3,-18.01,11.23,-38.33,39.1,14.98,40.84,RUN
88.7402761,0.81,0,-0.15,-76.05,9.77,13.85,38.72,17.07,39.36,RUN
88.84929037,-0.68,0.13,-0.22,-2.62,-38.09,-13.79,38.64,19.04,38.04,RUN
88.95942163,2.58,0.13,0.11,69.34,13.37,-5.25,39.37,18.21,37.73,RUN
89.06848907,2.09,0.16,0.3,96.74,-3.23,14.65,38.15,16.86,38.98,RUN
89.17837119,0.63,-0.26,-0.02,-38.7,72.33,-24.78,38.12,10.07,39.04,RUN
89.28988647,0.15,-0.03,-0.18,-45.1,-26.86,-21.85,37.6,11.11,40.5,RUN
89.40076065,2.25,-0.34,0.21,-59.02,-1.95,9.22,37.87,17.71,41.37,RUN
89.51065755,0.44,0.08,-0.16,-68.05,9.4,18.31,37.54,20.54,39.97,RUN
89.62085557,-0.59,0.19,-0.18,1.71,-75.38,-2.38,37.65,21.74,37.65,RUN
89.73030543,1.21,0.06,-0.14,14.95,12.15,-22.28,38.37,21.79,38.99,RUN
89.83980417,1.41,-0.03,0.08,81.24,1.59,25.57,36.69,20.02,41.43,RUN
89.94941974,1.49,-0.14,0.04,-42.79,30.64,-18.25,36.85,15.01,40.31,RUN
90.05834913,0.28,-0.31,-0.35,-23.62,-52.61,10.44,39.36,15.03,39.04,RUN
90.16828704,2.29,-0.25,0.34,-80.69,-27.4,16.48,37.28,19.56,40.93,RUN
90.27969956,0.15,0.08,-0.26,-82.95,22.64,16.54,38.54,21.19,37.18,RUN
90.39084697,0.06,0.19,-0.05,69.03,-88.93,-8,38.87,22.72,35.12,RUN
90.50083733,2.2,0.48,0.06,27.22,28.87,0.18,39.4,22.11,37.05,RUN
90.6099298,0.92,-0.12,0.14,103.58,-2.26,7.2,38.7,17.61,38.59,RUN
90.72006536,-1.02,-0.9,-0.08,14.04,-35.95,-78.8,39.06,13.95,38.35,RUN
90.8298986,1.38,-0.33,0.69,36.74,-31.43,6.77,39.69,13.9,38.45,RUN
90.93864965,1.53,-0.22,0.21,-105.96,37.6,19.84,39.31,18.15,39.1,RUN
91.04897761,-0.04,0.21,-0.01,-29.66,-38.33,-23.13,39.43,19.59,38.33,RUN
91.15897322,0.51,0.26,0,21.67,9.52,10.74,40.32,20.32,37.5,RUN
91.2678175,2.27,0.46,0.13,99.91,8.12,24.84,39.5,20.3,38.12,RUN
91.37789488,0.47,0.05,0.19,-10.07,107.67,-20.14,38.51,13.48,38.95,RUN
91.4872942,-0.4,-0.09,0.14,100.89,-213.87,0.37,39.33,12.84,38.61,RUN
91.59770036,2.33,0.05,0.71,-117.61,76.6,-9.95,40.16,13.42,39.43,RUN
91.70744729,1.17,0.11,0.04,-95.34,7.75,11.72,39.84,18.98,39.05,RUN
91.81682324,-0.23,0.15,-0.26,-45.65,-13.31,-16.05,38.59,21.04,37.6,RUN
91.9266808,0.4,-0.03,0.04,-4.88,24.9,6.71,39.66,21.75,34.59,RUN
92.03609943,2.22,0.36,0.18,49.62,28.75,23.44,39,22.64,37.26,RUN
92.14546013,0.11,-0.02,-0.14,1.65,36.68,3.05,37.67,17.37,40.34,RUN
92.2547617,-0.03,-0.1,0.1,46.69,-81.97,0.24,39.25,19.1,38.32,RUN
92.36507082,2.54,-0.12,0.37,-27.95,-0.49,-7.02,39.34,21.95,37.92,RUN
92.47463584,0.74,-0.1,-0.11,-75.56,23.5,-0.12,38.37,23.16,37.4,RUN
92.58463216,-0.33,0.02,-0.33,-10.62,-11.05,-2.01,38.18,24.55,36.33,RUN
92.69432425,3.31,0.49,0.31,39.61,26.25,16.17,38.89,24.6,35.38,RUN
92.80309987,1.61,-0.01,0.19,121.15,-1.16,40.04,37.79,21.22,37.1,RUN
92.91439724,0.37,0.24,0.28,-39.49,50.9,-18.74,37.9,12.18,39.31,RUN
93.02366376,-0.16,-0.09,0.2,76.11,-77.58,-1.22,39.65,13.26,36.55,RUN
93.1330533,2.42,-0.39,0.31,-35.64,13.06,43.88,38.88,13.42,35.95,RUN
93.24276423,0.46,0.21,-0.01,-114.93,41.56,-2.56,38.13,14.9,36.79,RUN
93.35303426,-0.08,0.27,-0.24,42.6,-1.59,-10.56,36.52,18.03,39.76,RUN
93.4624052,2.15,0.71,0.42,91.67,-27.34,24.35,37.29,16.27,37.79,RUN
93.57134819,1.1,0,0.14,81.54,15.2,10.99,36.15,11.28,39.23,RUN
93.68000817,-0.42,-0.24,-0.14,13.31,41.69,-9.03,34.35,7.3,40.72,RUN
93.79048038,0.57,-0.28,-0.51,51.27,-85.39,-12.33,34.62,9.89,41.11,RUN
93.90207911,1.83,-0.27,0.25,-100.89,30.88,15.2,34.63,12.83,39.78,RUN
94.01286054,1.11,-0.15,-0.4,-53.47,32.71,14.95,33.87,16.04,39.97,RUN
94.12230968,0.02,0.06,0.31,65.92,-88.01,-2.2,33.69,19.06,41.08,RUN
94.23118091,2.4,0.74,-0.01,68.91,21.24,34.85,35,17.99,41.69,RUN
94.34065294,0.38,0.07,-0.14,46.26,15.56,-6.47,33.13,12.04,43.68,RUN
94.4502697,-0.34,-0.25,-0.08,24.72,-47.49,-31.8,34.33,8.68,41.39,RUN
94.56072474,2.32,0.27,0.21,-68.79,31.98,-25.57,35.52,14.17,40.66,RUN
94.66978502,0.92,0.17,-0.2,-84.53,9.4,18.55,32.59,18.08,43.84,RUN
94.77971292,-0.18,0.13,-0.13,-98.27,35.89,4.39,32.7,18.96,42.96,RUN
94.88859892,1.73,0.26,0.22,22.09,33.33,12.63,33.61,19.54,41.16,RUN
94.99727368,1.86,0.08,0.02,73.91,73.18,43.27,34.85,18.38,42.13,RUN
95.10780573,0.02,-0.05,-0.08,60.85,7.39,-6.53,31.8,9.39,44.56,RUN
95.2179215,0.22,-0.13,0,-38.21,-33.45,-22.34,34.47,9.4,41.8,RUN
95.3280561,2.21,-0.38,-0.11,-91.49,22.71,24.6,32.92,16.04,44.29,RUN
95.4374187,0.16,0.02,-0.22,-25.76,-41.32,8.61,31.56,20.42,45.3,RUN
95.54618096,-0.18,0.28,0.02,-9.83,-31.49,16.85,30.81,22.77,44.82,RUN
95.65630341,3.35,0.65,-0.51,60.06,-77.03,8.54,32.96,21.94,44.58,RUN
95.76607728,0.69,-0.08,-0.24,35.83,36.68,-20.75,30.49,14.81,48.16,RUN
95.87683868,-0.21,-0.26,-0.14,49.99,-58.04,-20.75,32.81,10.23,44.47,RUN
95.98608065,3.53,-0.57,-0.16,-67.63,53.83,-59.63,35.34,15.6,44.93,RUN
96.09617853,1.07,0.15,-0.07,-100.52,60.67,23.13,32.17,20.37,46.13,RUN
96.20679307,0.19,0.07,-0.59,-41.08,85.69,-6.1,31.12,22.68,45.23,RUN
96.31631255,0.55,0.41,-0.4,103.27,-91.43,21.36,29.35,25.13,45.46,RUN
96.42644024,1.65,0.48,-0.32,98.69,55.6,41.32,31.77,17.13,46.24,RUN
96.53587055,0.08,-0.04,-0.19,76.42,26.18,-17.15,26.88,12.52,50.02,RUN
96.64419675,-0.05,-0.05,-0.05,-47.12,-7.69,-12.88,29.47,10.03,47.31,RUN
96.75481153,2.96,-0.08,-0.32,-66.77,-21.61,-38.45,31.23,16.35,47.33,RUN
96.86433506,0.63,0.21,-0.12,-71.9,60.73,21.24,29.38,21.08,47.47,RUN
96.9744854,0.21,0.01,-0.31,-7.87,46.02,-10.38,26.9,23.49,48.41,RUN
97.08354831,1.96,0.4,-0.17,51.33,-18.13,13.43,25.11,24.74,48.8,RUN
97.1935904,1.22,-0.18,-0.61,92.83,53.22,5.25,27.39,15.64,49.28,RUN
97.3026216,0.4,0.07,0,42.18,-0.18,4.39,22.01,13.09,51.51,RUN
97.41130781,0.67,-0.24,-0.42,-39.25,-97.17,-22.71,27.91,10.62,48.63,RUN
97.52159548,1.39,-0.65,-0.3,-91.98,-18.55,1.28,29.97,20.84,47.38,RUN
97.631006,0.54,-0.03,-0.39,-47.73,81.91,4.15,28.58,26.33,47.29,RUN
97.7398982,0.05,0.11,-0.26,23.99,-64.33,17.58,25.92,26.4,48.36,RUN
97.84920168,2.91,0.45,-0.66,77.09,-30.52,15.5,30.65,22.19,47.47,RUN
97.95862317,0.96,-0.35,-0.14,22.16,105.1,5.31,26.71,12.12,51.57,RUN
98.06894135,0.03,-0.29,-0.39,95.03,-77.64,-4.46,26.7,6.38,49.45,RUN
98.17844033,2.08,-0.43,-0.15,-83.01,-9.16,-66.1,31.65,11.1,47.27,RUN
98.28901434,1.21,-0.16,-0.19,-130.25,46.63,-16.17,30.99,21.7,46.03,RUN
98.39823747,0.4,0.06,-0.36,-27.34,72.08,-14.28,27.01,28.23,47.56,RUN
98.50851035,0.87,0.5,-0.42,90.52,-60.24,2.08,24.6,28.91,48.14,RUN
98.61890411,1.56,0.27,-0.59,136.96,-8.36,39.43,29.04,18.51,48.93,RUN
98.72879219,0.5,0.22,-0.13,93.81,57.25,3.54,24.71,11.29,52.15,RUN
98.83823943,0.07,-0.19,-0.18,39.49,-109.99,-13.67,27.91,3.56,47.99,RUN
98.94900346,2.73,-0.31,-0.14,-147.77,-14.77,-11.41,30.81,11.4,47.44,RUN
99.05834556,0.7,0.46,-0.5,-55.97,66.04,-8.85,30.3,22.71,47.8,RUN
99.16863036,-0.13,0.28,-0.17,-24.66,-57.25,-2.81,25.59,28.31,48.29,RUN
99.27770877,2.09,0.03,-0.2,108.7,-21.12,33.94,30.11,22.64,48.65,RUN
99.38734937,0.95,-0.23,-0.4,96.56,134.28,32.65,28.83,10.28,49.58,RUN
99.49764514,0.14,-0.28,-0.23,110.72,-71.59,7.14,27.54,0.02,47.09,RUN
99.60707045,0.8,-0.48,-0.1,-57.5,-43.09,-51.57,31.38,-0.13,46.28,RUN
99.71804023,1.57,-0.13,-0.3,-192.93,27.53,-12.88,31.95,12.41,48.08,RUN
99.82702255,0.47,0.01,-0.43,-75.13,62.68,-9.34,29.42,22.94,48.78,RUN
99.93723392,0.18,0.41,-0.04,-3.97,-60.18,-8.73,25.62,27.6,50.28,RUN
100.0471327,3.55,1.03,-0.55,127.62,-93.75,11.29,32.12,19.71,47.08,RUN
100.1562784,0.65,-0.08,-0.02,82.03,61.1,-14.28,27.28,9.02,51.37,RUN
100.2652121,0.03,-0.2,-0.3,62.81,-74.89,-19.23,29.46,0.88,46.39,RUN
100.3758898,2.13,0.34,0.04,-91.74,21.97,-65.31,31.69,3.76,47.12,RUN
100.4852417,1.42,0.33,0.06,-122.99,58.17,19.53,31.42,13.66,49.04,RUN
100.5967922,0.3,0.16,-0.22,-54.02,46.45,-0.37,28.36,18.52,49.94,RUN
100.7075183,0.49,0.49,-0.45,74.04,-82.46,3.72,31.29,18.13,47.49,RUN
100.8176835,1.8,0.24,-0.42,108.7,47.73,53.59,32.31,12.16,46.98,RUN
100.9296157,0.09,0.07,-0.24,106.38,-15.5,-0.61,28.22,7.28,48.52,RUN
101.0385714,-0.11,-0.09,-0.13,-59.14,-17.82,-31.68,31.4,4.55,45.68,RUN
101.1489944,3.28,-0.67,-0.59,-91.31,-55.48,-4.52,32.51,12.79,46.58,RUN
101.258996,0.53,0.22,-0.24,-61.28,36.25,37.6,31.31,20.69,46.15,RUN
101.3682721,-0.26,0.07,-0.27,18.98,-74.83,-5,30.48,23.77,45.65,RUN
101.478678,2.74,-0.08,-0.08,32.29,21.06,32.78,32.18,21.86,44.23,RUN
101.5885389,1.1,-0.23,-0.01,65.25,97.84,21.48,32.41,14.34,46.36,RUN
101.6983266,0.19,-0.31,-0.14,91.06,-44.56,4.88,30.77,9.64,47.13,RUN
101.8082409,0.86,-0.38,0.13,-68.97,-5.92,-26.55,34.73,10.14,43.93,RUN
101.9192269,1.74,-0.16,-0.14,-119.69,47.49,12.27,33.65,17.3,45.1,RUN
102.0295098,0.13,0.04,-0.28,-59.75,28.38,21.48,31.47,21.04,45.23,RUN
102.139406,0.02,0.04,-0.09,50.66,-31.86,2.69,32.87,20.06,44.29,RUN
102.2494068,3.62,0.79,-0.12,105.83,14.65,-2.99,33.47,18.18,43.79,RUN
102.3595443,0.5,-0.02,-0.18,69.82,24.48,-10.44,31.92,10.86,46.77,RUN
102.4696815,-0.51,-0.08,0.02,-13.37,-32.96,-39.18,31.32,6.07,46.18,RUN
102.5798955,2.4,0.23,0.12,-111.08,51.82,-69.09,36.54,6.63,43.2,RUN
102.6879575,1.22,0.03,-0.15,-116.7,13.06,4.64,35.66,15.37,44.41,RUN
102.798636,0.25,0.23,-0.13,-170.23,33.45,-27.28,33.56,24.37,43.86,RUN
102.90852,0.2,0.24,-0.27,23.68,-76.48,8.67,36.54,26.42,40.44,RUN
103.0188484,1.9,0.65,-0.34,122.56,40.04,71.66,37.57,23.16,41.39,RUN
103.1294904,-0.27,-0.09,-0.02,80.69,32.84,-5.37,36.32,12.67,43.98,RUN
103.2394931,0.42,-0.12,0.19,71.17,-73.61,-34.61,35.23,10.42,43.48,RUN
103.3493171,2.7,0.39,0.28,-68.48,16.72,-81.6,37.33,13.78,44.34,RUN
103.4591913,1.03,0.13,-0.17,-101.93,15.93,21.79,37.22,20.83,43.08,RUN
103.5707805,-0.6,0.19,-0.15,-1.65,-77.33,-16.42,35.91,23.1,42.46,RUN
103.6815984,0.33,0.32,-0.3,4.03,87.77,35.89,39.11,21.62,39.05,RUN
103.7912133,2.25,0.04,-0.08,133.36,-1.46,57.25,37.38,18.58,41.24,RUN
103.9011831,1.25,0.32,0.37,12.82,36.01,-41.44,37.85,11.28,40.67,RUN
104.0116467,0.01,-0.09,-0.11,-3.48,-42.54,33.2,38.07,12.32,41.1,RUN
104.1213923,3.47,-0.47,0.13,-15.75,-39.79,11.47,37.3,15.71,40.31,RUN
104.2308187,0.65,0.1,-0.26,-93.75,13.06,11.9,36.78,18.31,41.93,RUN
104.3419218,-0.46,0.01,-0.3,-40.34,1.1,-4.09,37.54,20.68,38.84,RUN
104.4513893,3.89,0.34,0.64,26.98,38.7,-13,37.81,21.37,39.69,RUN
104.561873,1,-0.15,0.1,83.5,15.32,28.75,37.06,17.15,40.2,RUN
104.6705396,0.01,0.07,0.3,-14.22,57.43,-33.02,36.99,10.4,40.15,RUN
104.7806182,0.24,-0.24,-0.27,-42.6,4.21,-13.37,36.99,13.81,44.13,RUN
104.8903852,1.97,-0.11,0.12,-91.37,1.04,14.59,36.41,19.53,43.19,RUN
105.0007341,1.52,-0.14,0.05,-99.43,59.94,32.96,35.99,20.54,42.35,RUN
105.1105738,0.09,-0.02,0.08,69.89,-106.26,-15.26,37.13,22.39,39.71,RUN
105.2195957,3.19,0.66,-0.37,41.69,8.48,-11.9,36.74,23,41.91,RUN
105.3281081,0.81,-0.31,-0.07,81.91,-8.36,6.59,36.61,15.42,42.55,RUN
105.4371662,-0.69,-0.25,-0.28,37.54,-62.68,-40.47,35.64,11.45,43.32,RUN
105.5477393,3.31,-0.89,-0.19,-54.5,162.17,-12.76,37.93,14.73,43.36,RUN
105.6579695,1.5,0.03,-0.03,-76.66,1.34,40.95,36.11,18.54,44.18,RUN
105.7664778,0.78,-0.15,-0.37,-110.6,109.5,-11.23,34.99,19.81,43.18,RUN
105.8769779,0.19,0.03,-0.04,46.88,-44.13,4.09,36.62,20.85,42.57,RUN
105.9867692,2,0.15,-0.18,76.17,57.19,29.85,36.44,20.17,41.89,RUN
106.0960364,0.18,0.02,-0.04,49.93,1.83,0.79,34.17,14.42,44.09,RUN
106.2067027,-0.07,-0.04,-0.07,-22.4,-5.13,-31.19,33.06,12.56,45.13,RUN
106.3165674,2.31,-0.08,-0.17,-48.77,-33.33,2.14,34.34,17.11,45.36,RUN
106.4261024,1.28,0.09,-0.02,-82.76,10.13,24.35,33.01,21.83,44.21,RUN
106.5353141,-0.14,0.11,-0.16,-50.66,28.2,11.9,32.51,23.93,44.35,RUN
106.6458035,1.38,0.25,0.03,75.5,-17.7,-2.56,33.37,23.51,43.92,RUN
106.7551336,1.84,0.05,-0.26,89.78,81.73,22.34,34.55,20.53,44.34,RUN
106.8645043,0.16,0.04,-0.12,72.57,21.55,-17.88,33.09,13.56,46.94,RUN
106.9739003,0.02,0,-0.17,0.12,-16.36,-10.93,34.9,9.62,44.65,RUN
107.0830998,2.71,-0.16,-0.42,-33.39,-31.8,-16.72,33.36,13.88,45.87,RUN
107.193027,0.83,0.08,-0.09,-65.49,21.61,11.96,32.02,17.87,46.81,RUN
107.3032885,-0.33,0.05,-0.47,-10.25,-24.48,-0.98,30.66,19.07,47.72,RUN
107.4136131,3,-0.06,0.46,19.59,23.25,7.2,33.59,18.38,44.67,RUN
107.5226297,1.56,-0.32,0.04,50.42,73.79,17.27,33.41,13.89,45.47,RUN
107.6323242,0.47,-0.23,-0.19,22.71,10.44,0.79,31.29,10.22,46.95,RUN
107.7424898,0.52,-0.16,-0.15,-8.67,-86,-7.08,34.53,10.42,44.08,RUN
107.8528459,1.84,-0.21,0.03,-91.74,30.94,21.73,33.83,15.09,43.85,RUN
107.962254,0.22,-0.01,-0.14,-37.17,-13.61,17.7,33.46,17.7,44.09,RUN
108.0719512,-0.1,0.16,-0.18,7.87,-50.17,3.23,33.15,19.74,45.06,RUN
108.1814649,3.22,0.94,-0.33,60.97,-42.85,-15.5,34,19.1,43.38,RUN
108.2917478,0.67,-0.14,-0.16,54.02,34.36,-17.52,33.26,12.84,44.54,RUN
108.4013221,-0.02,-0.14,-0.2,64.7,-59.2,-15.81,32.36,9.52,44.92,RUN
108.5120611,2.49,0.04,0.2,-60.61,32.23,-43.15,33.31,12.87,45.57,RUN
108.6227734,1.6,-0.06,-0.1,-111.76,52.98,12.08,32.95,17.7,45.37,RUN
108.7328451,0.26,0.09,-0.25,-40.59,45.9,23.38,29.8,20.37,47.22,RUN
108.8412266,0.44,0.21,-0.44,31.43,-53.65,-8.67,30.09,21.84,47.99,RUN
108.9505191,2.07,0.55,-0.26,93.87,-14.34,13.98,31.71,19.69,46.18,RUN
109.0596142,0.64,0.11,-0.05,31.07,16.17,-2.62,30.32,12.88,48.43,RUN
109.1693385,0,-0.16,-0.26,51.88,-70.13,-24.84,32.26,8.14,45.65,RUN
109.2798531,2.57,0.24,-0.16,-56.58,-6.23,-44.07,32.69,13.73,48.83,RUN
109.3887203,1.09,0.24,-0.09,-68.18,41.32,17.64,32.24,18.31,46.17,RUN
109.498884,-0.24,0.15,-0.23,-33.87,-41.08,0.79,31.97,19.64,45.95,RUN
109.608603,1.91,0.48,-0.06,25.45,20.32,3.54,34.97,21.25,42.5,RUN
109.7185152,1.85,0.1,-0.04,93.02,76.54,9.77,34.59,18.81,45.18,RUN
109.8280835,0.6,-0.09,-0.3,38.82,20.81,-0.73,32.12,11.35,46.84,RUN
109.9380713,-0.02,-0.27,-0.12,5.68,-75.81,-17.82,33.7,12.93,46.14,RUN
110.0477521,2.46,-0.2,-0.34,-56.27,-12.15,30.7,31.48,18.51,49.33,RUN
110.1593218,0.42,0.04,-0.15,-41.14,-24.35,22.4,31.45,21.45,47.3,RUN
110.2691569,-0.35,-0.07,-0.23,-21.79,-20.2,-3.85,29.15,23.51,48.08,RUN
110.3804746,2.53,0.57,-0.45,21.48,-95.52,-0.85,31.35,23.24,46.55,RUN
110.4891181,1.13,-0.04,0.06,23.13,76.9,-10.25,29.86,15.69,48.89,RUN
110.5992589,-0.07,-0.17,-0.19,42.6,-4.7,-11.23,28.82,12.61,49.44,RUN
110.7106745,2.98,0.35,-0.19,-95.83,11.84,-31.43,30.25,15.1,49.39,RUN
110.8194487,1.11,0.06,-0.39,-80.14,57.31,6.84,32.35,19.63,47.85,RUN
110.9284618,-0.09,0,-0.18,-21.91,-19.35,5.8,30.18,22.16,47.14,RUN
111.037991,1.18,0.34,0.03,62.13,-43.7,3.54,33.09,22.11,44.6,RUN
111.1476905,1.67,0.26,-0.4,122.01,75.07,21.61,34.24,19.74,45.81,RUN
111.2559924,0.25,-0.05,-0.14,59.39,19.9,-18.68,30.8,10.58,47.68,RUN
111.3664966,0.2,-0.05,0.04,-35.83,-29.6,-9.58,32.02,9.94,47.05,RUN
111.4767129,1.84,0.34,-0.21,-43.82,-24.66,-29.54,33.37,15.22,47.83,RUN
111.5849698,1.01,0.16,0,-86.49,17.64,32.71,33.22,18.53,45.35,RUN
111.6954973,-0.17,0,-0.29,-45.72,48.28,-18.92,31.88,19.51,45.32,RUN
111.8049824,0.79,0.08,-0.08,110.47,-80.26,-26.67,33.78,20.56,44.3,RUN
111.9150145,1.78,-0.14,-0.1,88.26,64.27,41.75,33.37,14.4,46.67,RUN
112.0254846,0.12,0.02,0.01,76.97,4.21,2.08,32.02,9.42,45.89,RUN
112.1348579,-0.15,-0.09,-0.1,-16.36,-28.14,-9.83,31.87,10.39,47.49,RUN
112.2457738,2.87,-0.37,-0.34,-88.68,4.15,5.25,35.05,13.75,45.54,RUN
112.3542624,0.4,-0.02,-0.15,-49.07,-2.2,23.07,33.29,17.74,46.61,RUN
112.4648476,-0.19,0.09,-0.23,-46.69,-20.14,4.03,32.39,19.86,45.65,RUN
112.5743334,1.79,0.17,0.33,9.46,-25.51,33.39,35.3,19.51,43.84,RUN
112.6833448,1.19,-0.04,0.02,40.34,64.15,7.2,31.8,14.44,47.83,RUN
112.7930193,0.35,-0.09,-0.16,17.76,-4.82,7.51,30.86,11.61,47.99,RUN
112.9023831,0.55,-0.15,-0.38,-15.01,-66.89,-14.16,31.91,14.25,48.03,RUN
113.0119455,1.47,-0.09,-0.12,-97.35,22.58,3.05,33.06,19.23,46.33,RUN
113.1213405,0.4,-0.02,-0.19,-42.66,36.38,5.37,30.27,21.72,47.14,RUN
113.2311311,-0.17,0.14,-0.32,26.43,-35.95,-1.53,28.44,24.65,47.46,RUN
113.3415942,3.37,0.92,-0.44,63.48,-57.07,-27.83,30.53,21.62,47.23,RUN
113.4518034,0.8,-0.07,0.07,26.92,65,-10.44,30.32,14.99,48.5,RUN
113.561331,-0.35,-0.29,-0.06,70.43,-59.88,-18.55,30.41,11.54,48.23,RUN
113.6711552,2.15,0.12,0.04,-83.92,8,-29.72,33.45,14.48,47.72,RUN
113.7815635,1.01,0.12,-0.25,-79.47,46.88,3.97,32.93,20.61,47.29,RUN
113.8916054,-0.03,0.07,-0.27,-16.42,-12.21,4.52,30.29,23.6,47.13,RUN
114.0017939,1.6,0.41,-0.07,44.37,28.26,19.35,32.84,23.38,45.24,RUN
114.111707,1.45,0.04,-0.39,113.53,50.96,30.82,33.81,15.71,47.55,RUN
114.2217398,0.08,-0.25,-0.12,53.59,12.94,-18.62,30.35,11.96,49.43,RUN
114.331413,0.03,-0.1,-0.12,-49.62,-20.14,-6.96,32.1,10.89,46.5,RUN
114.4414577,2.9,-0.28,-0.36,-82.15,-24.35,22.28,33.56,15.78,47.05,RUN
114.5517902,0.54,0.07,-0.17,-53.28,35.71,11.17,31.54,19.98,48,RUN
114.6618607,-0.11,-0.02,-0.24,3.91,-29.54,8.54,30.15,21.57,47.66,RUN
114.7715719,1.91,0.21,-0.57,28.75,-43.33,-14.89,32.56,18.41,47.69,RUN
114.8806379,1.17,-0.04,0.07,27.65,51.33,6.9,31.75,11.35,47.95,RUN
114.9904523,0.05,-0.13,-0.04,47.06,-37.48,-10.07,31.99,7.92,46.39,RUN
115.10147,2.43,-0.62,0.19,-79.1,31.74,-26.86,34.46,10.91,44.74,RUN
115.2111011,1.67,-0.04,0.16,-114.81,20.26,18.92,32.89,16.98,46.5,RUN
115.319824,0.16,0.03,-0.35,-48.28,32.23,17.64,32.78,21.09,45.28,RUN
115.4306707,0.21,0.11,-0.04,20.08,-45.53,0.73,33.42,22.42,44.64,RUN
115.539835,2.44,0.83,-0.46,67.81,-15.26,5.8,35.69,20.15,43.32,RUN
115.6494231,0.54,0.05,-0.11,83.74,-2.81,-27.4,34,13.88,45.42,RUN
115.7585995,-0.37,-0.43,-0.28,18.19,-9.09,-29.17,34.13,10.23,45.42,RUN
115.8680587,3.21,-0.64,0.09,-86.55,35.52,-65.98,35.82,12.87,44.03,RUN
115.9786298,1.32,0.05,-0.15,-76.11,-18.49,46.45,34.24,17.91,45.1,RUN
116.0879848,0.09,0.36,-0.27,-41.99,4.33,23.8,35.79,17.72,42.24,RUN
116.1968684,0.6,-0.08,-0.02,70.19,-67.69,3.17,38.61,14.72,39.98,RUN
116.3078654,2,0.04,0.17,28.81,89.36,1.53,35.38,13.76,44.45,RUN
116.4184,-0.07,0,-0.27,24.6,1.53,-16.48,34.39,11,43.52,RUN
116.5269346,-0.02,-0.05,0.03,8.06,-64.76,-25.09,34.23,13.79,45.59,RUN
116.637553,2.79,-0.48,-0.12,-72.39,3.97,14.89,34.68,18.25,45.28,RUN
116.7469902,0.37,-0.06,-0.22,-38.09,-8.24,27.1,32.78,21.52,45.31,RUN
116.8575308,-0.5,0.16,-0.17,-18.74,-19.1,10.86,33.06,22.78,44.63,RUN
116.9668405,1.59,-0.27,-0.17,-16.91,31.62,37.05,35.05,21.74,43.88,RUN
117.0767558,1.34,0.08,0.04,53.16,67.44,3.66,30.88,17.26,46.64,RUN
117.1850374,0.8,-0.26,-0.4,23.19,0.12,-12.15,31.18,13.29,46.08,RUN
117.2941427,1.27,-0.63,-0.06,13.55,-111.57,-26.98,32.81,16.06,45.91,RUN
117.4038744,1.41,-0.1,-0.15,-78.49,71.04,5.19,33.44,21.19,44.25,RUN
117.514677,0.3,0.23,-0.23,-3.42,-19.53,2.56,30.99,24.13,44.23,RUN
117.6244137,0.21,0.23,-0.13,56.09,-57.19,-5.25,33.02,22.63,44.48,RUN
117.7341919,2.15,0.74,-0.26,77.45,-31.49,-5.37,34.23,20.36,42.74,RUN
117.8443646,0.36,0.03,-0.06,61.16,12.51,-6.9,33,14.9,45.84,RUN
117.9529531,-0.23,-0.18,-0.3,-9.03,-31.86,-12.15,35.02,10.84,42.44,RUN
118.0631986,3.14,0.03,-0.13,-24.11,9.34,-25.02,35.25,15.08,44.81,RUN
118.1719735,0.63,0.2,-0.11,-46.81,-2.5,17.64,34.17,17.91,44.73,RUN
118.2822266,-0.14,0.19,-0.23,0.37,-18.19,8.85,34,19.84,44.38,RUN
118.3918445,2.96,-0.05,0.04,20.81,23.99,-6.53,34.48,18.51,44.34,RUN
118.5027936,1.38,-0.27,0.22,54.69,83.86,22.77,33.01,12.48,46.72,RUN
118.6122916,0.79,-0.11,-0.21,-1.28,36.32,-11.6,31.46,9.27,45.72,RUN
118.7223687,0.49,-0.42,-0.26,-12.15,-96.25,-15.75,32.86,11.41,46.04,RUN
118.8323884,1.75,-0.39,-0.04,-78.74,16.42,26.25,33.28,16.05,45.8,RUN
118.9420114,0.05,0.03,-0.22,-40.89,-5.98,10.44,33.5,19.4,44.01,RUN
119.0523863,-0.03,0.12,-0.19,37.66,-43.7,5.43,35.11,21,42.93,RUN
119.161479,1.97,0.85,-0.32,80.51,3.36,11.54,35.78,18.65,42.85,RUN
119.2709682,0.56,-0.01,-0.05,73.06,19.71,-13.18,34.14,11.58,45.67,RUN
119.3807538,-0.25,-0.15,-0.2,-38.15,-11.23,-17.03,33.34,9.63,45.96,RUN
119.4916401,1.53,0.19,-0.32,-34.85,-2.01,-37.96,34.47,14.17,45.68,RUN
119.6012652,1.09,0.06,-0.06,-82.58,50.29,16.3,33.94,20.07,45.74,RUN
119.7116692,-0.02,0.03,-0.21,-41.87,16.3,8,31.79,22.69,45.92,RUN
119.8217137,1.5,0.4,0.01,87.52,-32.65,3.23,33.42,21.47,44.43,RUN
119.9307382,1.3,-0.18,-0.15,85.51,118.04,16.85,34.14,15.64,46.41,RUN
120.0402002,-0.19,-0.33,-0.2,63.84,-2.01,2.26,31.31,11.1,47.57,RUN
120.1505258,0.6,-0.36,-0.26,-34.67,-53.28,-11.17,32.36,10.27,47.68,RUN
120.2606711,1.71,-0.18,-0.23,-110.23,-17.88,2.38,34.89,16.1,45.73,RUN
120.3697734,0.38,0.02,-0.14,-65.92,7.69,11.6,33.44,20.83,45.89,RUN
120.4799371,-0.21,0.1,-0.32,37.17,-31.68,10.13,34.78,21.51,44.08,RUN
120.5903602,2.93,0.6,-0.62,64.51,-6.53,-14.47,35.55,19.91,44.15,RUN
120.7004917,0.71,-0.28,0.03,74.77,17.64,3.48,34.38,12.78,45.65,RUN
120.8093731,-0.16,-0.19,-0.21,2.08,-17.09,-28.63,33.91,10.68,44.24,RUN
120.9195299,2.47,-0.04,-0.18,-54.63,-8.85,-93.38,36.3,13.53,44.17,RUN
121.0297189,1.12,-0.25,-0.13,-67.5,28.32,16.24,34.23,19.65,45.43,RUN
121.1392789,0.05,0.12,-0.32,-63.84,29.85,8.48,32.24,23.85,46.63,RUN
121.2497613,1.85,0.42,-0.04,81.48,-10.13,28.75,33.47,22.52,45.79,RUN
121.3600938,1.29,-0.19,-0.23,52.43,125.49,18.92,33.9,17.02,46,RUN
121.4711404,0.01,-0.14,-0.12,65,-18.49,-7.2,31.24,13.51,48.02,RUN
121.5825942,0.44,-0.29,-0.28,-79.1,-22.4,-5.49,33.75,11.36,46.26,RUN
121.6925666,1.47,-0.47,-0.2,-102.78,5.25,19.23,35.02,17.85,45.37,RUN
121.8022618,0.5,0.09,-0.12,-65.43,3.78,-3.72,33.2,23.95,45.36,RUN
121.9117427,0.01,0.07,-0.26,26.86,-39.61,10.31,35.12,24.05,43.59,RUN
122.0216045,3.45,1.11,-0.13,67.26,3.72,-28.26,35.52,20.59,44.01,RUN
122.1310203,0.49,-0.05,-0.11,66.47,18.43,-25.21,33.97,14.61,45.47,RUN
122.2417629,-0.15,-0.13,-0.17,-16.48,-11.72,-19.59,33.53,12.5,45.3,RUN
122.3518181,1.96,0.44,-0.22,-19.53,-2.56,-65.25,35.58,13.85,44.14,RUN
122.4627783,0.86,-0.12,-0.1,-61.71,27.59,27.89,32.74,19.57,46.34,RUN
122.5724046,0.03,0.14,-0.22,-44.62,30.58,12.27,32.18,20.42,45.78,RUN
122.6810305,3.37,0.4,-0.05,71.96,4.15,15.14,32.09,19.89,46.37,RUN
122.7916265,1.34,-0.28,-0.17,68.48,130.55,27.04,33.54,14.26,45.85,RUN
122.9014955,-0.22,-0.15,-0.14,60.49,-11.05,-7.93,30.24,10.95,47.89,RUN
123.011225,0.72,-0.39,-0.31,-47.91,-52.55,-16.11,32.84,9.97,46.83,RUN
123.1211052,1.53,-0.51,-0.21,-113.4,18.98,23.01,34,17.63,45.58,RUN
123.2312229,0.19,0.07,-0.23,-60.18,0.67,8.61,32.74,23.91,45.68,RUN
123.3413889,0.08,0.16,-0.21,38.39,-40.47,-0.24,33.52,24.29,43.13,RUN
123.4515646,2.5,0.91,-0.23,75.74,0.73,4.82,34.47,21.67,43.53,RUN
123.5610104,0.39,0.04,-0.04,74.46,16.24,-12.57,32.5,14.69,47.08,RUN
123.6712584,-0.19,-0.11,-0.14,0.67,-13.79,-16.05,33.19,10.96,45.57,RUN
123.781388,2.49,0.43,-0.56,-11.35,10.56,-15.63,35.21,13.73,44.96,RUN
123.8911552,0.86,0.02,-0.07,-76.9,7.26,26.79,33.59,21.24,45.46,RUN
124.0016074,-0.11,-0.01,-0.2,-50.35,25.76,5.13,32.34,22.52,44.81,RUN
124.1113305,3.37,0.77,-0.13,17.46,30.52,31.19,33.04,21.84,44.9,RUN
124.2208638,1.57,-0.2,0.28,61.77,104.92,30.58,34.17,16.35,45.78,RUN
124.3315001,-0.15,-0.21,-0.05,45.96,-7.08,-6.77,32.69,12.66,45.28,RUN
124.4412093,0.65,-0.27,-0.02,-34.79,-29.79,-11.47,34.46,11.49,44.91,RUN
124.5515845,1.92,-0.28,-0.07,-87.1,39.18,28.32,34.97,18.6,44.68,RUN
124.6612284,0.23,0.31,-0.22,-48.71,-0.49,11.6,34.3,20.76,43.18,RUN
124.770638,-0.16,0,-0.24,20.63,-25.82,-1.77,34.88,20.53,43.43,RUN
124.8816791,2.42,0.54,-0.49,41.44,-17.4,-15.87,34.55,18.16,42.64,RUN
124.9916046,0.74,-0.02,-0.08,46.26,18.55,1.16,33.72,12.82,43.92,RUN
125.1004643,-0.1,-0.16,-0.15,49.56,-26.12,-21,33.02,10.63,43.87,RUN
125.2103722,2.91,-0.77,0.21,-47.79,17.58,-53.47,34.56,12.3,43.04,RUN
125.3211854,1.41,-0.13,0.02,-95.15,62.99,33.14,33.06,18.31,44.48,RUN
125.4324932,0.08,0.14,-0.29,-42.11,4.94,9.64,33.15,20.72,43.33,RUN
125.542299,1.41,0.53,-0.07,93.87,-33.45,-6.1,34.08,20.89,43.31,RUN
125.6520159,1.51,-0.07,-0.12,70.86,86.24,9.4,35.78,18.46,42.72,RUN
125.7618742,0.02,-0.14,-0.08,49.32,7.57,-0.37,33.39,14.22,44.51,RUN
125.8727698,0.4,-0.24,-0.26,-22.09,-28.5,-25.57,34.19,12.84,43.51,RUN
125.9833887,1.79,-0.34,-0.17,-99.79,21.36,17.4,34.23,19.64,45.35,RUN
126.0937462,0.33,0.08,-0.19,-55.79,8,14.59,33.33,22.61,44.04,RUN
126.2037175,-0.21,0.05,-0.27,12.39,-36.93,0.67,34.02,23.66,43.12,RUN
126.3129559,2.99,0.83,-0.51,47.91,-35.4,-26,34.56,22.46,42.38,RUN
126.4228206,0.64,-0.19,-0.03,78.61,9.64,-3.23,34.34,14.7,44.97,RUN
126.5327983,-0.31,-0.23,-0.26,-3.36,-26.06,-26.73,34.24,11.76,44.64,RUN
126.6432252,2.68,-0.39,-0.16,-70.25,56.95,-48.52,35.69,15.63,42.96,RUN
126.752672,1.45,-0.06,0.01,-101.5,5.31,25.21,34.24,20.65,43.44,RUN
126.8619144,0.53,0.15,-0.33,-77.21,47.97,5.98,34.16,23.02,42.4,RUN
126.9718874,0.4,0.18,-0.25,79.41,-55.54,-7.45,34.89,23.35,41.16,RUN
127.0824144,1.9,0.51,-0.19,60.06,41.38,-4.64,36.12,21.96,42.29,RUN
127.1920314,0.4,-0.14,-0.02,47.12,1.22,-4.88,35.53,16.85,43.58,RUN
127.3018687,-0.1,-0.18,-0.11,-38.09,-13.49,-22.28,34.99,17.13,43.09,RUN
127.4129469,2.47,-0.35,-0.21,-54.08,-34.24,-16.97,36.17,20.28,42.52,RUN
127.5237424,0.79,-0.02,-0.01,-117.19,7.26,30.4,34.78,23.99,41.89,RUN
127.6335006,-0.14,-0.05,-0.29,-35.89,-5.98,-9.16,33.59,25.89,40.98,RUN
127.7432072,2.68,0.59,-0.15,190.98,-47,-6.59,35.42,27.38,38.56,RUN
127.8529031,1.68,-0.24,0.01,32.84,107.42,47.36,37.08,22,40.22,RUN
127.9635549,-0.01,-0.12,-0.2,76.23,5.8,7.51,34.06,15.92,42.32,RUN
128.0719204,0.2,-0.12,0,11.47,-57.98,-7.02,34.72,16.46,43.21,RUN
128.1820977,2.13,-0.06,0.02,-77.88,67.38,-12.63,34.39,18.74,42.49,RUN
128.2916915,0.25,0.19,-0.21,-53.16,9.52,15.93,33.22,20.41,42.55,RUN
128.4007237,-0.25,0.01,-0.28,-0.06,-18.92,-0.43,33.13,21.91,42.77,RUN
128.5111318,2.13,0.73,-0.33,5.86,-43.76,5.31,33.19,20.95,42.22,RUN
128.6214635,0.78,0.01,-0.12,44.19,12.76,6.65,33.22,17.11,43.08,RUN
128.7302978,0.1,-0.13,-0.17,41.32,-28.2,-15.56,33.25,14.12,43.52,RUN
128.8401446,2.03,-0.43,0.06,-49.13,20.32,-40.59,34.18,17.66,41.63,RUN
128.9502039,1.62,0.03,0.21,-84.47,59.02,15.75,33.56,20.04,41.6,RUN
129.0605423,0.11,0.12,-0.28,-28.81,14.65,12.88,32.89,20.98,41.5,RUN
129.1704152,0.2,0.11,-0.12,35.95,-24.6,-13.37,33.11,21.63,40.91,RUN
129.281414,2.21,0.35,-0.18,73.43,43.88,-5.31,34.07,19.29,40.52,RUN
129.3898346,0.49,-0.02,0.01,72.02,1.65,0.67,32.37,14.61,43.41,RUN
129.499016,-0.27,-0.14,-0.25,16.3,-53.89,-21.97,33.8,10.35,40.8,RUN
129.6094666,2.58,0.52,0.36,-99.85,73.18,-24.48,33.62,15.63,41.03,RUN
129.7173021,1.11,-0.04,-0.15,-62.62,-14.04,26.18,31.23,18.33,42.25,RUN
129.8293724,-0.08,0.05,-0.14,-63.48,43.15,25.33,31.6,19.09,42.24,RUN
129.9394176,3.03,0.8,-0.21,22.03,12.27,8.54,32.73,18.55,41.44,RUN
130.0497332,1.35,-0.05,-0.04,45.65,70.86,9.7,32.92,15.55,41.05,RUN
130.1592963,0.14,-0.08,0.05,80.57,-33.69,-3.54,32.28,9.67,42.61,RUN
130.2691915,0.13,-0.18,-0.01,-41.93,3.54,-28.99,34.81,8.92,38.11,RUN
130.3795602,2.05,-0.26,0,-82.46,31.19,2.87,32.8,13.43,41.92,RUN
130.4890945,0.29,0.05,-0.28,-31.56,-14.34,21.42,32.48,16.52,41.91,RUN
130.5993469,-0.14,-0.01,-0.07,20.14,-47.42,-17.76,32.62,18.81,42.24,RUN
130.7096586,2.57,0.45,-0.42,26.18,-20.2,-20.87,34.06,17.6,39.9,RUN
130.8180938,0.77,-0.09,-0.01,53.47,14.1,-1.53,33.56,11.32,42.59,RUN
130.9285553,-0.03,-0.1,-0.11,-14.22,-1.65,-17.7,33.24,10.4,43.07,RUN
131.03812,2.42,-0.59,-0.28,-89.29,39,-33.33,35.05,12.81,39.79,RUN
131.147943,1.68,-0.07,0.27,-105.16,29.42,27.83,33.22,17.96,42.7,RUN
131.2581561,0.46,0.11,-0.39,-61.46,32.29,12.27,33.79,21.29,40.2,RUN
131.368572,0.4,0.23,-0.18,60.67,-60.67,-15.5,33.44,23.23,41.56,RUN
131.4779139,1.77,0.78,-0.16,96.92,54.93,-2.44,35.88,22.64,39.27,RUN
131.5877261,0.2,-0.1,-0.01,100.1,7.75,-18.8,33.74,14.87,42.99,RUN
131.6974721,-0.01,-0.26,-0.09,41.56,-55.97,-6.59,35,11.72,42.13,RUN
131.8085387,2.37,-0.03,0.09,-68.36,20.57,-23.56,35.36,16.38,43.48,RUN
131.9177091,0.65,-0.04,-0.06,-61.46,-43.52,7.08,34.24,18.76,42.66,RUN
132.027957,-0.37,0,-0.17,32.35,-62.38,17.7,34.36,20.75,42.24,RUN
132.1370487,2.98,0.66,-0.07,-22.34,99.37,17.4,37.52,20.28,37.6,RUN
132.2475219,1.76,0.12,-0.01,97.53,-4.52,3.91,33.41,16.21,43.92,RUN
132.3559279,0.45,0.19,0.63,-143.98,100.83,-16.42,32.8,14.04,44.45,RUN
132.4659262,0.06,-0.32,-0.58,-39.25,-41.32,-6.1,36.5,14.17,41.41,RUN
132.5764892,2.32,-0.48,-0.1,-86.67,62.32,23.99,33.81,19.86,42.68,RUN
132.6857004,-0.07,0.22,-0.16,-66.77,2.56,32.84,33.51,22.45,44.3,RUN
132.7940083,-0.32,0,-0.32,36.38,-42.18,-7.87,33.33,22.94,43.1,RUN
132.9037349,2.22,0.74,-0.17,12.51,-58.11,10.25,32.75,22.27,43.84,RUN
133.0143902,0.88,0,-0.25,42.91,32.78,-5.55,33,16.65,44.32,RUN
133.1242363,-0.2,-0.16,-0.17,14.16,-8.79,-23.38,30.96,16.89,45.28,RUN
133.2329862,2.62,-0.48,0.15,-74.46,32.71,-34.06,32.19,19.34,45.3,RUN
133.3433676,1.4,-0.03,0,-79.53,13.85,20.08,31.75,23.49,45.41,RUN
133.4530416,0.1,0.13,-0.16,-8.73,-16.85,16.72,32.14,23.99,43.3,RUN
133.5629189,0.54,0.3,-0.23,77.58,-17.15,-7.81,34.07,23.61,42.05,RUN
133.6723983,1.81,0.51,-0.35,95.52,48.52,-10.31,34.34,21.42,43.97,RUN
133.7821319,0.3,-0.19,-0.05,71.17,4.64,-7.69,31.52,14.37,45.48,RUN
133.8922329,-0.2,-0.26,-0.22,-11.11,-34.42,-25.88,31.52,15.47,45.89,RUN
134.002027,2.47,-0.32,-0.41,-0.85,-62.38,6.16,32.81,18.54,45.24,RUN
134.1106374,0.83,-0.11,-0.14,-65.25,3.72,20.63,32.82,21.24,44.7,RUN
134.2209237,-0.06,0.04,-0.3,-23.68,5.49,20.45,33.03,22.41,43.84,RUN
134.3309443,1.96,0.05,0.07,19.17,-28.26,28.93,33.68,20.78,43.73,RUN
134.4424365,1.53,0.11,-0.01,59.27,15.14,13.43,33.33,16.22,44.89,RUN
134.5527856,0.25,-0.12,-0.08,21.61,-2.44,-2.26,33.11,13.15,43.08,RUN
134.6644735,0.69,-0.35,-0.13,-37.6,-56.4,-28.56,34.34,14.88,42.47,RUN
134.7745562,2.05,-0.22,0.02,-75.44,49.44,-1.4,34.66,20.79,43.07,RUN
134.8845394,0.28,0.07,-0.22,-32.9,-6.77,5.07,33.37,23.46,43.4,RUN
134.9941027,-0.05,0.04,-0.19,27.95,-34.24,1.77,33.24,25.06,42.11,RUN
135.1038723,2.22,0.26,-0.28,50.54,-13.92,8.54,34.79,21.58,42.75,RUN
135.2146749,0.86,-0.09,0,58.84,8.06,11.23,34.85,16.7,42.91,RUN
135.3237369,-0.12,-0.17,-0.2,36.62,-16.54,-14.16,34.08,13.51,41.82,RUN
135.4341216,2.38,0.46,-0.14,-52,6.47,-24.66,35.55,15.19,42.58,RUN
135.544637,1.4,-0.07,0.05,-80.57,27.83,38.27,33.89,18.16,43.81,RUN
135.6536758,0.19,0.2,-0.25,-47.61,25.94,8,33.61,20.67,43.49,RUN
135.7631872,1.21,0.48,0.45,103.58,-114.99,-9.28,34.22,21.03,43.98,RUN
135.8734972,1.73,0.26,-0.47,83.92,90.21,-5.31,34.92,16.7,43.68,RUN
135.9836493,0.11,-0.02,-0.09,39.79,9.03,-12.76,32.87,14.78,44.68,RUN
136.0928872,0,-0.12,-0.21,-48.4,-18.8,-11.47,34.35,12.81,43.64,RUN
136.2033024,2.39,-0.32,-0.17,-56.15,-21.85,7.63,34.5,17.26,44.27,RUN
136.3134913,0.63,0.07,-0.14,-71.17,14.22,25.57,33.53,21.74,43.84,RUN
136.422493,-0.18,-0.07,-0.28,-13.18,-21.06,-6.1,32.59,24.11,43.19,RUN
136.532676,1.7,-0.04,-0.23,29.72,-27.1,9.4,33.48,24.49,43.05,RUN
136.6423266,1.44,-0.07,0.1,37.78,56.88,10.38,32.92,18.35,44.85,RUN
136.751811,-0.06,-0.17,-0.13,59.33,-18.92,-5.92,32.56,15.69,44.26,RUN
136.8626795,1.33,-0.48,-0.03,-58.84,8.42,-11.35,34.84,14.7,43.41,RUN
136.9724181,1.74,-0.21,0.01,-89.84,46.26,13.85,35.05,20,43.26,RUN
137.0813074,0.29,0.22,-0.2,-38.94,6.04,10.13,33.78,23.33,43.57,RUN
137.1916289,0.12,0.02,-0.2,41.02,-32.78,-2.69,35.03,22.45,43.49,RUN
137.3005199,2.7,0.79,-0.17,63.23,-13.55,-16.91,36.01,20.4,42.94,RUN
137.4100738,0.56,-0.12,-0.03,43.03,9.16,-13.18,35.11,14.88,43.48,RUN
137.520375,-0.14,-0.1,-0.09,16.48,-37.17,-31.8,35.83,13.18,41.89,RUN
137.6301129,2.98,-0.36,0.71,-62.32,59.14,-77.7,36.27,15.47,42.76,RUN
137.7399466,1.15,-0.11,0.12,-69.82,-11.17,33.81,34.96,20.56,42.53,RUN
137.8504961,-0.55,0.08,-0.21,-39.67,-48.89,-4.7,34.7,21.98,42.04,RUN
137.9599626,0.69,-0.19,0.24,-53.16,47.3,6.59,40.47,21.62,34.81,RUN
138.0704172,1.83,0.12,-0.01,67.93,22.58,32.59,35.34,17.79,42.92,RUN
138.1804254,1.59,-0.95,-0.92,-88.68,178.83,-23.44,36.16,13.44,42.27,RUN
138.2900615,0.19,-0.13,-0.37,2.69,-87.16,-0.37,35.67,15.11,42.07,RUN
138.4000838,1.9,-0.43,-0.09,-60.06,6.23,31.31,33.92,18.9,44.58,RUN
138.511302,0.06,0.06,-0.26,-25.76,-4.21,37.11,33.61,20.1,43.95,RUN
138.621006,-0.37,0.04,-0.24,16.42,-42.3,4.21,33.8,21.18,42.27,RUN
138.7316442,2.55,1.1,-0.23,-7.02,13.31,-14.47,36.34,19.17,40.75,RUN
138.8418276,0.81,0.06,-0.03,52.12,14.22,-16.85,34.23,14.71,44.15,RUN
138.9511087,0.08,-0.11,-0.18,10.5,1.95,-26.55,32.8,12.43,43.35,RUN
139.0613866,2.97,-0.01,-0.1,-35.34,-46.81,-31.37,34.68,13.82,42.65,RUN
139.1715469,1.29,0.25,0.09,-88.2,66.1,26.37,35.18,18.99,40.99,RUN
139.2816758,0.09,0.11,-0.3,-25.02,7.14,2.69,33.75,21.9,42.13,RUN
139.3905554,0.51,0.32,-0.25,68.73,-39.86,-13,34.51,22.06,41.43,RUN
139.500071,1.72,0.27,-0.26,103.21,29.17,2.99,35.46,20.07,39.7,RUN
139.6103771,0.25,-0.15,-0.02,57.43,-0.37,-4.94,34.7,15.26,42.93,RUN
139.7200303,-0.11,-0.26,-0.21,-43.46,-9.03,-9.83,35.1,13.02,40.75,RUN
139.8306191,1.89,-0.1,-0.15,-34.97,-9.7,4.03,35.47,17.74,41.99,RUN
139.9398539,0.82,-0.02,-0.06,-59.02,-13.85,18.86,34.59,20.37,41.49,RUN
140.0502286,-0.1,0,-0.19,6.65,-17.7,-1.04,34.31,20.85,39.9,RUN
140.1599889,2.64,0.47,-0.08,15.75,3.78,25.7,34.92,19.12,38.94,RUN
140.2705975,1.53,0.05,0.21,61.46,33.26,18.86,34.18,15.84,41.77,RUN
140.379637,0.54,-0.23,-0.2,3.42,32.1,-0.06,33.53,12.39,41.46,RUN
140.4892161,0.54,-0.31,0.03,-19.1,-84.23,-16.78,35.21,13.7,41.65,RUN
140.5994148,1.95,-0.33,0.06,-90.94,49.07,13.43,35.99,17.71,40.92,RUN
140.7077672,0.18,0.16,-0.23,-38.88,-14.04,26.31,34.46,21.22,40.2,RUN
140.817811,-0.19,0.03,-0.09,18.37,-35.58,-6.04,34.68,21.96,39.59,RUN
140.9284554,2.85,0.98,-0.26,30.82,-28.63,-13.61,35.1,19.89,39.11,RUN
141.0379963,0.74,0.03,-0.02,52.73,11.78,-6.53,33.48,14.87,41.91,RUN
141.1471477,0.13,-0.14,-0.09,15.26,-10.38,-19.47,32.73,12.66,42.64,RUN
141.2562554,2.81,-0.17,0.08,-56.82,13.79,-39.12,34.11,14.22,40.27,RUN
141.3658171,1.36,0.03,0.22,-78.92,53.34,31.56,34.97,19.1,41.43,RUN
141.4751387,0.11,0.22,-0.2,-39.79,9.52,23.13,34.46,20.42,41.24,RUN
141.5846808,0.61,0.43,-0.26,78.61,-27.1,-15.99,34.91,19.86,40.76,RUN
141.6954706,1.48,0.03,-0.17,86.12,58.23,9.4,35.27,17.05,39.75,RUN
141.8043873,0.27,-0.13,0.01,49.93,-3.91,-1.77,33.8,13.4,41.56,RUN
141.9140544,-0.08,-0.35,-0.14,-53.22,-2.26,-15.69,35.23,12.51,39.73,RUN
142.0245984,2.13,-0.18,-0.08,-70.68,-13.12,12.45,33.92,17.38,41.05,RUN
142.1337464,0.64,-0.03,-0.05,-60.49,-3.72,26.73,34,20.29,40.25,RUN
142.2427621,-0.26,0.04,-0.23,8.36,-33.94,0.79,34.51,20.94,39.47,RUN
142.3533194,2.42,0.37,-0.18,61.46,-44.98,33.87,34.74,21.02,38.44,RUN
142.4629509,1.28,0.22,0.17,34.85,21.73,-9.16,33.92,16.21,41.7,RUN
142.5735111,0.22,-0.11,-0.01,20.51,-1.53,-10.31,32.75,14.1,42.65,RUN
142.6826711,2.62,-0.5,0,-67.63,23.56,-43.76,34.25,15.86,42.1,RUN
142.7928042,1.49,0,0.15,-91.13,72.39,24.11,35.34,20.09,40.22,RUN
142.9036074,0.1,0.16,-0.21,-28.87,-7.39,15.99,34.63,22.09,39.92,RUN
143.0131471,0.08,0.07,-0.09,35.71,-29.91,-8.73,35.63,21.63,38.43,RUN
143.1233561,1.94,0.68,0,78.43,44.56,4.15,35.95,20.17,39.27,RUN
143.2322114,0.43,0.01,0.01,73.85,7.39,-3.91,34.96,14.81,42.14,RUN
143.3413069,-0.25,-0.12,-0.13,16.3,-25.27,-31.25,34.31,14.4,43.27,RUN
143.4512746,2.5,0.09,0.11,-43.15,28.75,-28.87,36.22,17.21,40.3,RUN
143.56107,0.92,-0.12,-0.1,-62.74,-2.93,27.4,33.9,20.81,41.32,RUN
143.6720214,-0.07,0.06,-0.21,-48.83,18.74,5.43,33.58,21.4,40.34,RUN
143.7818532,3.59,0.97,-0.1,-1.71,24.78,5,34.63,20.37,39.26,RUN
143.8922806,1.37,-0.24,0.24,42.6,109.13,17.82,35.57,17.16,40,RUN
144.001498,0.09,-0.17,-0.09,33.87,-14.22,6.23,33.83,14.54,42.66,RUN
144.1109324,0.72,-0.38,0.13,5.25,-61.65,-31.62,35.16,14.25,40.93,RUN
144.2202051,2.11,-0.04,0.19,-84.9,53.1,-2.56,35.47,18.53,39.89,RUN
144.3304656,0.39,0.19,-0.06,-53.28,-17.7,14.4,34.86,22.2,39.78,RUN
144.4402509,-0.19,0.08,-0.19,12.51,-28.2,-4.21,35.18,22.69,37.71,RUN
144.5503776,2.22,0.73,-0.28,50.78,-58.23,7.51,35.25,22.45,39.34,RUN
144.6591375,0.89,0.02,-0.06,51.64,25.63,-5.49,34.47,16.98,41.88,RUN
144.7696259,0.11,-0.12,-0.1,56.09,-32.47,-11.11,33.25,15,41.53,RUN
144.8794675,2.46,0.5,0.2,-74.65,34,-32.17,35.03,14.87,40.64,RUN
144.9887216,1.24,0.01,0.14,-92.04,58.9,41.32,34.18,19.49,41.78,RUN
145.0979807,0.02,0.17,-0.22,-26.67,-0.24,12.21,33.15,21.33,41.11,RUN
145.2082303,0.4,0.34,-0.15,29.3,-15.75,-13.67,34.06,21.53,39.69,RUN
145.3185606,1.65,0.57,-0.34,103.09,22.28,2.2,34.8,20.3,40.2,RUN
145.4276829,0.35,-0.04,-0.01,42.3,11.05,8.54,32.52,16.47,42.43,RUN
145.5379853,-0.07,-0.27,-0.24,-1.22,-48.28,-19.17,32.79,13.94,41.44,RUN
145.6480319,2.16,-0.09,-0.05,-39.18,-45.47,-5.86,33.84,19.4,40.67,RUN
145.7577934,0.79,0.09,-0.11,-69.89,3.97,9.7,33.95,23.01,40.44,RUN
145.8678045,-0.17,-0.04,-0.18,20.51,-17.33,5.92,33.76,22.63,38.62,RUN
145.9782078,2.2,0.53,-0.37,48.71,4.64,12.08,33.64,21.47,39.97,RUN
146.086874,1.06,0.11,0,31.43,39.61,7.63,33.39,15.59,41.71,RUN
146.1958058,-0.07,-0.26,-0.06,60.12,-33.94,-17.58,31.71,13.26,43.6,RUN
146.3057439,1.92,-0.18,-0.15,-42.05,7.87,-28.2,33.53,12.32,40.25,RUN
146.4164574,1.55,0.07,0.04,-99.91,13.98,-3.17,33.87,19.42,41.04,RUN
146.5253823,0.16,0.17,-0.22,-43.21,3.97,0.43,33.56,22.51,41,RUN
146.6340556,0.15,0.01,-0.11,31.74,-39.12,-16.6,34.13,21.61,39.72,RUN
146.7443874,2.68,0.47,-0.09,83.25,-32.41,1.22,34.88,19.71,39.49,RUN
146.8544028,0.66,0.03,0.05,59.63,4.64,8.18,35.06,14.2,40.86,RUN
146.9645352,-0.19,-0.22,-0.17,34.61,-32.78,-15.01,34.28,11.71,39.77,RUN
147.075227,2.4,0.38,0.17,-43.21,-12.08,-35.89,35.52,16.41,39.79,RUN
147.1851659,1.36,0.15,0.08,-91.67,-3.17,27.59,34.75,19.65,40.27,RUN
147.2955976,0.09,0.18,-0.21,-32.71,26.67,7.39,34.35,21.56,39.01,RUN
147.4061322,1.77,0.52,0.09,67.44,-10.5,-12.33,35.41,21.15,37.61,RUN
147.5161507,1.57,-0.05,-0.14,93.69,57.13,8.85,35.24,18.53,38.53,RUN
147.6252983,0.38,-0.05,0,41.2,13.37,-2.2,34.59,14.17,41.58,RUN
147.7338135,-0.19,-0.36,-0.27,15.5,-31.31,-21.67,34.74,13.01,40.34,RUN
147.8436775,2.49,-0.06,0.05,-36.74,-27.95,-14.34,33.75,17.57,42.7,RUN
147.9545107,0.78,-0.03,-0.1,-78.37,12.57,7.02,33.48,20.06,41.71,RUN
148.0641448,-0.24,0,-0.21,26.31,-46.26,-2.38,33.18,21.46,39.79,RUN
148.1752582,1.73,0.24,0.44,-1.95,11.11,35.89,34.78,20.21,38.68,RUN
148.2846355,1.34,0.15,0.04,66.16,16.24,20.75,34.16,16.35,41.21,RUN
148.3960342,0.33,-0.09,-0.05,22.58,-4.52,12.51,33.57,12.16,41.06,RUN
148.5061908,0.63,-0.31,0.02,-24.23,-68.3,-25.45,35.83,12.34,37.18,RUN
148.6159079,2.08,-0.22,0.22,-85.51,60.85,6.65,35.36,16.83,39.93,RUN
148.7254732,0.17,0.22,-0.18,-24.17,-21.3,10.86,34.01,20.26,38.53,RUN
148.8347192,-0.26,0.04,-0.05,31.8,-47.42,-9.64,34.63,20.9,38.78,RUN
148.9447076,1.92,0.42,-0.35,26.43,-63.11,5.86,34.64,20.39,38.59,RUN
149.0549603,0.85,0.09,0.08,66.16,14.22,8.3,34.57,15.95,39.65,RUN
149.1635358,0.12,-0.09,-0.02,42.11,-14.65,-9.34,34.74,11.5,39.95,RUN
149.2749698,2.23,-0.2,-0.09,-81.05,51.33,-43.33,35.3,13.89,39.09,RUN
149.3848302,1.65,-0.08,0.19,-82.03,46.88,24.9,33.64,17.79,41.28,RUN
149.495059,0.34,0.13,-0.1,-90.33,21.73,6.35,32.86,19.35,40.49,RUN
149.6055326,0.17,0.17,-0.15,54.87,-92.65,-13.79,34.4,20.87,38.7,RUN
149.7151268,2.02,0.57,-0.06,81.36,68.66,0.73,35.62,19.6,38.49,RUN
149.8250437,-0.05,-0.08,0.12,87.52,-37.96,-3.48,33.62,11.02,40.99,RUN
149.9355004,-0.08,-0.14,0.03,84.41,-169.31,-37.6,36.67,11.56,38,RUN
150.0452852,2.68,0.28,0.7,-43.46,109.8,-17.33,35.31,16.14,40.95,RUN
150.154896,0.74,0.09,0.13,-42.05,-42.6,17.7,33.53,17.47,41.69,RUN
150.2648008,-0.18,-0.02,0.1,47.36,-83.19,-5.49,34.47,18.44,39.67,RUN
150.3762004,3.19,0.43,-0.02,-35.03,142.21,32.35,38.7,17.82,36.19,RUN
150.4858136,1.57,-0.02,0.18,104.74,-23.25,13.06,34.7,15.53,41.3,RUN
150.5960681,-0.38,-0.23,0.05,39.49,-22.52,-31.13,35.62,10.42,40.28,RUN
150.7048509,0.55,-0.38,0.13,-68.24,55.42,19.53,36.04,11.79,40.22,RUN
150.8145416,1.85,-0.21,0.04,-94.42,-17.21,3.3,34.07,15.72,40.45,RUN
150.9255157,0.26,0.16,-0.04,-86.55,5.43,12.63,34.25,18.48,41.96,RUN
151.0336897,-0.14,0.02,-0.42,-22.83,-0.06,-13.61,35.85,20.8,39.7,RUN
151.1440508,2.02,0.3,-0.23,57.98,0.43,33.33,34.5,20.65,40,RUN
151.2538383,0.65,0.06,-0.05,75.13,-8.12,12.15,33.72,14.33,42.48,RUN
151.3642247,-0.25,-0.15,-0.06,-39.06,11.47,-26.18,32.73,14.32,44.29,RUN
151.4736159,2.6,0.24,-0.29,-57.31,45.53,-51.51,33.8,16.47,42.66,RUN
151.5844829,1.54,0.19,0.01,-76.78,-6.9,37.48,34.02,20.01,42.98,RUN
151.6943965,0.14,0.08,-0.22,-42.79,10.38,18.25,34.4,21.07,41.41,RUN
151.8044846,0.55,0.16,0.03,73.06,-43.4,-27.65,35,22.23,41.08,RUN
151.9150007,1.72,0.12,-0.13,85.63,97.17,-19.17,36.83,21.48,42.7,RUN
152.0247905,0.25,-0.19,-0.03,67.5,2.56,-4.58,35.58,15.11,40.77,RUN
