Time (s),Accel_X,Accel_Y,Accel_Z,Gyro_X,Gyro_Y,Gyro_Z,Mag_X,Mag_Y,Mag_Z
0.0,
0.0,0.92, 0.18, 0.14, -2.87, -14.34, -13.06, 38.26, 14.53, 33.01,
0.0010013580322265625,0.95, 0.21, 0.17, -1.77, -7.51, -2.62, 39.06, 14.77, 32.24,
0.002019166946411133,0.96, 0.16, 0.17, -0.67, -3.23, -3.97, 39.29, 14.69, 32.54,
0.003001689910888672,0.99, 0.18, 0.18, -4.82, -1.10, -0.49, 40.11, 14.79, 31.65,
0.004002809524536133,0.98, 0.22, 0.19, 0.92, -4.46, -1.59, 39.70, 14.58, 31.76,
0.004002809524536133,0.99, 0.23, 0.18, 9.16, -10.93, -5.43, 39.65, 14.50, 32.31,
0.005002260208129883,0.95, 0.18, 0.20, 10.19, -5.86, -11.17, 40.06, 15.53, 30.79,
0.006001472473144531,0.95, 0.17, 0.23, 2.14, -7.32, -5.92, 40.49, 15.55, 28.99,
0.006001472473144531,0.90, 0.07, 0.26, 3.23, -2.50, 9.40, 40.33, 16.14, 29.54,
0.007002115249633789,0.96, 0.07, 0.26, -5.49, 3.30, -0.49, 40.11, 14.82, 28.93,
0.008000612258911133,0.98, 0.18, 0.24, -9.89, 0.73, -2.99, 40.64, 14.98, 28.63,
0.00900125503540039,0.94, 0.16, 0.23, -5.13, -2.69, -4.39, 39.88, 16.05, 29.14,
0.00900125503540039,0.95, 0.14, 0.24, -2.93, 0.31, -1.40, 39.61, 16.27, 29.93,
0.010002851486206055,0.95, 0.12, 0.25, -5.13, 1.77, 3.72, 39.31, 16.47, 29.80,
0.011003732681274414,0.96, 0.16, 0.25, -13.49, 0.73, 4.09, 40.32, 16.48, 29.90,
0.012094259262084961,0.96, 0.21, 0.24, -13.31, -1.77, 3.23, 40.25, 16.53, 30.57,
0.012094259262084961,0.95, 0.25, 0.23, -4.52, -2.44, -1.65, 39.73, 16.32, 28.93,
0.012094259262084961,0.95, 0.23, 0.24, 6.84, -4.64, -2.81, 39.84, 16.50, 28.50,
0.013706445693969727,0.94, 0.19, 0.25, 13.24, -3.66, -5.13, 39.79, 16.32, 28.96,
0.014774322509765625,0.95, 0.16, 0.27, 12.45, -2.69, -3.05, 40.14, 16.46, 28.31,
0.015815258026123047,0.94, 0.15, 0.27, 8.91, -1.46, -2.99, 40.20, 15.66, 28.52,
0.015815258026123047,0.94, 0.13, 0.27, 3.17, -1.04, -1.65, 40.00, 15.97, 27.37,
0.016813993453979492,0.93, 0.13, 0.28, -1.65, -0.12, -2.08, 40.16, 15.65, 28.69,
0.017813682556152344,0.95, 0.14, 0.28, -2.75, -0.06, -0.67, 39.67, 16.32, 29.39,
0.01880955696105957,0.94, 0.13, 0.28, -3.78, 1.77, -0.24, 39.90, 16.74, 29.25,
0.01880955696105957,0.95, 0.13, 0.27, -3.60, 0.92, -1.40, 39.90, 16.58, 27.94,
0.01981186866760254,0.95, 0.14, 0.26, -2.81, -1.83, 0.37, 39.77, 16.70, 28.98,
0.020811796188354492,0.95, 0.15, 0.27, -2.14, -1.16, -0.18, 39.43, 16.47, 27.94,
0.02180957794189453,0.95, 0.15, 0.27, -1.04, -0.73, -0.43, 39.38, 16.30, 29.09,
0.02180957794189453,0.94, 0.14, 0.26, -2.69, -0.92, 0.43, 39.75, 16.76, 28.78,
0.02280449867248535,0.94, 0.15, 0.28, -4.82, -3.11, 7.14, 39.40, 16.87, 27.91,
0.02382063865661621,0.96, 0.15, 0.26, -4.88, -0.92, 5.19, 39.54, 16.20, 27.54,
0.02382063865661621,0.92, 0.20, 0.24, -13.79, -2.99, 1.34, 39.54, 16.37, 28.42,
0.02382063865661621,0.92, 0.16, 0.28, -12.33, -0.92, 1.71, 39.83, 16.38, 27.31,
0.025421857833862305,0.94, 0.21, 0.26, -15.20, -1.10, 2.93, 39.67, 16.65, 27.72,
0.026429176330566406,0.93, 0.25, 0.25, -6.71, -2.08, 8.67, 39.72, 16.09, 27.76,
0.026429176330566406,0.93, 0.26, 0.22, -7.57, -1.22, 4.76, 39.84, 15.33, 28.34,
0.02752232551574707,0.93, 0.28, 0.23, -3.54, 0.06, 1.28, 40.14, 15.67, 27.22,
0.02752232551574707,0.93, 0.27, 0.24, -0.12, 0.43, -3.72, 39.61, 15.70, 27.37,
0.028528928756713867,0.95, 0.26, 0.25, -0.85, 0.49, -3.11, 39.92, 16.24, 28.61,
0.028528928756713867,0.94, 0.25, 0.24, 0.24, 0.61, -2.62, 38.95, 16.52, 26.68,
0.029522180557250977,0.93, 0.25, 0.23, 1.95, -0.37, -1.22, 38.99, 15.75, 29.17,
0.029522180557250977,0.93, 0.24, 0.23, 2.99, 0.37, -0.18, 39.31, 16.49, 28.23,
0.03052353858947754,0.94, 0.24, 0.25, 1.53, 1.22, -0.37, 39.33, 15.95, 28.20,
0.03152894973754883,0.93, 0.24, 0.24, -0.18, 2.69, -1.04, 39.09, 15.76, 28.81,
0.03152894973754883,0.95, 0.23, 0.24, -0.31, 3.66, -0.37, 38.49, 16.14, 27.33,
0.032518863677978516,0.90, 0.22, 0.18, -5.19, 9.83, -0.31, 38.98, 16.21, 27.23,
0.032518863677978516,0.81, 0.22, 0.19, 5.43, 24.35, -3.91, 38.38, 16.15, 29.71,
0.03352093696594238,1.07, 0.35, 0.17, 26.31, 47.97, 15.26, 36.95, 14.90, 33.19,
0.03352093696594238,0.94, 0.26, 0.05, 28.81, 37.11, 11.72, 35.52, 12.70, 36.29,
0.03493070602416992,1.00, 0.37, -0.08, 18.43, 42.42, 5.19, 33.24, 10.68, 37.52,
0.035530805587768555,1.09, 0.39, -0.18, 17.88, 10.99, -13.06, 32.92, 10.69, 39.55,
0.035530805587768555,0.99, 0.30, -0.06, 12.88, -27.65, -22.34, 32.92, 10.67, 39.33,
0.036530494689941406,0.98, 0.18, -0.07, 11.96, -48.16, -26.55, 34.96, 10.47, 36.95,
0.03753161430358887,0.87, 0.23, 0.09, 26.12, -45.96, -23.56, 37.50, 12.66, 33.54,
0.03753161430358887,0.96, 0.13, 0.22, 39.49, -23.99, -4.52, 39.20, 11.79, 29.53,
0.03854203224182129,0.96, 0.02, 0.25, 62.50, -1.16, 11.05, 39.05, 10.07, 29.47,
0.03854203224182129,0.97, -0.00, 0.23, 39.49, -9.95, -4.76, 39.69, 8.47, 28.10,
0.039525747299194336,0.93, 0.01, 0.29, 36.07, -6.59, 0.98, 39.39, 7.70, 26.92,
0.039525747299194336,0.92, -0.02, 0.33, 27.10, -3.48, -3.05, 38.94, 7.30, 26.34,
0.040526628494262695,0.96, -0.09, 0.32, 9.64, -0.85, -3.54, 39.67, 7.23, 25.92,
0.040526628494262695,0.95, -0.04, 0.31, -7.26, -1.46, -4.58, 39.69, 6.87, 25.67,
0.041532278060913086,0.96, -0.03, 0.32, -5.13, -2.08, 0.79, 39.55, 7.09, 25.78,
0.04253363609313965,0.96, -0.02, 0.28, -4.52, -0.43, 3.17, 40.03, 6.82, 24.83,
0.04253363609313965,0.95, -0.01, 0.32, -6.77, -2.20, 1.53, 39.73, 7.10, 25.32,
0.043524742126464844,0.94, 0.01, 0.34, -5.62, -1.04, 1.46, 39.98, 7.25, 25.38,
0.043524742126464844,0.95, 0.04, 0.33, -1.10, -7.26, 0.73, 39.45, 6.69, 25.34,
0.043524742126464844,0.93, -0.03, 0.34, -9.46, 2.50, 0.92, 39.81, 6.75, 26.11,
0.0453801155090332,0.98, 0.06, 0.32, 5.00, -8.91, -3.30, 40.04, 6.96, 24.35,
0.0453801155090332,0.83, -0.03, 0.33, 8.06, -9.28, 6.65, 40.26, 6.64, 24.10,
0.046242475509643555,1.00, 0.03, 0.36, -3.97, 5.31, -8.61, 39.73, 6.37, 24.48,
0.046242475509643555,0.95, -0.02, 0.39, 6.35, 4.46, 10.62, 40.11, 6.68, 24.93,
0.04724740982055664,0.91, 0.10, 0.34, 12.15, 6.90, 3.72, 39.73, 6.32, 24.41,
0.04724740982055664,0.95, -0.04, 0.32, 5.13, 6.59, 5.98, 38.88, 5.35, 25.52,
0.04823589324951172,0.97, 0.02, 0.31, -4.03, 5.80, 0.12, 39.07, 4.87, 26.82,
0.04924297332763672,0.96, 0.02, 0.30, -7.14, 2.99, 3.60, 38.76, 4.94, 26.71,
0.04924297332763672,0.96, 0.05, 0.29, -11.66, 3.97, 1.95, 39.34, 5.25, 27.47,
0.05017852783203125,0.95, 0.06, 0.28, -5.00, -0.24, 2.20, 38.79, 5.47, 27.39,
0.05017852783203125,0.94, 0.08, 0.29, 0.37, 1.28, 1.22, 39.26, 4.79, 27.89,
0.05119633674621582,1.00, 0.06, 0.24, 2.08, -2.20, -4.46, 38.88, 4.48, 28.06,
0.05119633674621582,0.96, 0.05, 0.25, -9.64, -7.08, -4.09, 38.88, 5.38, 27.34,
0.052138566970825195,0.95, 0.06, 0.31, -3.11, -1.59, -1.53, 38.96, 5.36, 27.39,
0.05316424369812012,0.95, 0.02, 0.30, -2.81, -4.03, -4.64, 38.82, 5.29, 26.66,
0.05316424369812012,0.95, 0.03, 0.30, -3.36, -4.15, -2.38, 39.27, 6.01, 26.94,
0.05415225028991699,0.94, 0.02, 0.32, -1.53, -1.65, -3.17, 38.96, 6.27, 25.95,
0.05415225028991699,0.97, 0.05, 0.31, -4.27, -2.32, -18.62, 38.81, 7.31, 27.03,
0.05415225028991699,0.91, -0.04, 0.32, -24.35, -6.29, -8.97, 40.28, 8.98, 25.38,
0.05567812919616699,0.97, 0.02, 0.34, -11.84, -3.85, -3.17, 40.25, 9.57, 25.90,
0.05567812919616699,0.98, -0.05, 0.32, -9.95, -3.60, -3.48, 39.97, 10.13, 25.88,
0.05670738220214844,0.89, 0.03, 0.35, -2.69, -5.07, 4.58, 40.56, 10.05, 25.45,
0.05670738220214844,0.92, 0.05, 0.37, 7.51, -1.40, 0.49, 40.47, 9.11, 26.28,
0.057785987854003906,0.91, -0.01, 0.38, 5.43, 3.97, 0.85, 40.42, 8.78, 25.46,
0.057785987854003906,0.95, 0.03, 0.36, 1.34, 5.68, 2.75, 40.64, 9.08, 27.22,
0.05878400802612305,0.96, 0.01, 0.33, -3.42, 4.39, -2.93, 40.16, 8.58, 26.65,
0.059792518615722656,0.94, 0.02, 0.32, -0.43, 1.16, 0.43, 40.22, 8.91, 27.22,
0.059792518615722656,0.96, 0.02, 0.32, -2.75, 0.24, -1.89, 40.06, 8.74, 26.92,
0.060790300369262695,0.97, 0.01, 0.32, -3.91, -2.75, -4.58, 40.12, 9.30, 26.44,
0.060790300369262695,0.96, -0.01, 0.33, 0.49, -7.26, -2.87, 40.61, 9.16, 26.62,
0.06178689002990723,0.91, -0.03, 0.35, -6.23, -9.34, -5.37, 41.37, 9.81, 25.92,
0.06178689002990723,0.91, 0.03, 0.36, -8.73, -8.06, -0.73, 41.56, 10.10, 25.77,
0.0627896785736084,0.93, 0.02, 0.35, -2.26, 2.99, 9.77, 41.37, 9.29, 25.68,
0.0627896785736084,0.93, 0.05, 0.38, 0.37, -2.87, 1.71, 42.36, 9.07, 25.22,
0.06379055976867676,0.93, 0.04, 0.35, 0.31, 0.00, 1.40, 42.02, 8.81, 25.38,
0.06379055976867676,0.92, 0.03, 0.36, -2.38, 0.55, 0.55, 41.93, 9.40, 26.25,
0.06503582000732422,0.93, 0.02, 0.37, -4.46, -1.95, 0.00, 42.04, 8.92, 25.89,
0.06569504737854004,0.93, 0.04, 0.37, -5.07, 0.73, -0.43, 41.85, 9.17, 26.42,
0.06669163703918457,0.93, 0.05, 0.36, -1.34, 1.83, 0.12, 41.14, 9.55, 25.73,
0.06669163703918457,0.93, 0.05, 0.36, 0.18, 2.93, -0.85, 41.49, 9.28, 25.56,
0.06769108772277832,0.93, 0.04, 0.35, -0.31, 1.83, -0.73, 40.87, 9.05, 26.50,
0.06769108772277832,0.93, 0.04, 0.34, -0.55, 1.53, -0.79, 41.74, 8.96, 26.38,
0.06869101524353027,0.93, 0.05, 0.34, -0.37, 1.40, -1.22, 41.39, 8.54, 26.37,
0.06969094276428223,0.94, 0.05, 0.34, -0.18, 1.65, -1.28, 40.92, 9.90, 26.71,
0.06969094276428223,0.95, 0.05, 0.33, -2.01, 1.04, -0.98, 41.70, 9.22, 26.53,
0.07069087028503418,0.94, 0.07, 0.34, 5.19, 2.32, 2.50, 41.22, 8.96, 27.33,
0.07069087028503418,0.93, 0.05, 0.32, -4.76, 1.28, -4.64, 40.86, 8.95, 27.44,
0.07169103622436523,0.96, 0.04, 0.33, 0.49, 3.78, 2.50, 41.05, 9.39, 27.58,
0.07169103622436523,0.94, 0.06, 0.31, -2.62, -0.73, -4.82, 40.84, 9.44, 28.71,
0.07269096374511719,0.96, 0.07, 0.32, 5.37, -2.01, -5.13, 41.36, 9.17, 27.43,
0.07269096374511719,0.92, 0.03, 0.32, 14.34, -0.55, -0.55, 41.81, 9.34, 28.88,
0.07369089126586914,0.94, -0.01, 0.32, 3.05, -2.38, 0.31, 41.52, 8.67, 26.76,
0.07369089126586914,0.95, 0.02, 0.34, -2.38, -1.95, -1.59, 41.52, 8.70, 27.09,
0.07519364356994629,0.93, 0.01, 0.32, -1.53, 0.61, -1.89, 41.78, 8.54, 27.70,
0.07519364356994629,0.96, 0.01, 0.31, -4.58, 0.37, -0.24, 41.89, 9.31, 27.86,
0.07619738578796387,0.95, 0.00, 0.33, -4.33, 0.79, -2.01, 41.54, 10.12, 27.56,
0.07619738578796387,0.96, 0.03, 0.32, 0.73, 0.49, 0.31, 41.35, 9.72, 28.80,
0.07719731330871582,0.94, 0.01, 0.32, -1.59, -2.14, 0.43, 41.59, 9.57, 26.88,
0.07719731330871582,0.94, 0.03, 0.34, -1.34, -1.04, -1.34, 41.94, 9.25, 28.11,
0.07819747924804688,0.95, 0.02, 0.30, 4.58, 0.12, 3.30, 42.29, 8.54, 28.02,
0.07819747924804688,0.96, 0.04, 0.35, 0.67, 4.39, 0.37, 42.83, 8.98, 27.28,
0.07919740676879883,0.95, 0.04, 0.28, 3.48, 11.41, -1.28, 41.15, 8.67, 29.26,
0.08019733428955078,0.94, 0.02, 0.28, -5.00, 7.32, 0.06, 41.03, 8.22, 29.25,
0.08019733428955078,0.95, 0.05, 0.25, -3.11, 12.63, 0.24, 40.89, 9.30, 31.18,
0.08120179176330566,0.93, 0.03, 0.20, -8.06, 17.09, 4.52, 40.53, 8.62, 32.08,
0.0821981430053711,1.11, -0.00, 0.23, -11.11, 14.16, 0.49, 39.67, 8.97, 33.40,
0.08319854736328125,0.91, 0.05, 0.21, -2.50, -1.59, 7.14, 39.42, 8.07, 33.44,
0.08319854736328125,0.97, 0.04, 0.18, -0.12, 13.73, 2.69, 39.44, 8.90, 33.72,
0.084197998046875,1.01, 0.07, 0.13, 1.95, -9.34, 7.08, 38.85, 7.93, 34.89,
0.08519792556762695,1.02, 0.04, 0.26, -4.58, -13.61, 3.85, 39.39, 7.31, 34.24,
0.08519792556762695,0.99, 0.06, 0.24, -4.21, -10.25, 0.24, 39.90, 7.73, 32.78,
0.0861976146697998,0.96, 0.10, 0.21, -20.02, -10.38, 1.95, 39.95, 7.53, 32.91,
0.08719778060913086,0.97, 0.14, 0.17, -13.92, -22.89, -5.86, 40.91, 8.41, 31.85,
0.08719778060913086,0.90, 0.16, 0.20, 6.29, -15.81, 3.05, 41.93, 8.52, 29.15,
0.08819770812988281,0.96, 0.13, 0.31, 11.23, -1.71, 0.61, 42.15, 8.76, 28.08,
0.08819770812988281,0.90, 0.13, 0.29, 7.14, 10.99, -1.83, 41.89, 7.79, 29.41,
0.08919787406921387,0.92, 0.12, 0.28, 7.02, 16.42, -4.58, 41.69, 7.69, 30.07,
0.08919787406921387,0.94, 0.09, 0.27, 3.23, 10.19, -4.76, 40.64, 8.54, 30.48,
0.09019756317138672,0.99, 0.08, 0.30, -1.22, 0.73, -6.96, 40.44, 9.24, 31.52,
0.09019756317138672,1.03, 0.09, 0.30, 0.61, -9.40, -11.84, 41.21, 10.40, 31.13,
0.09119725227355957,0.99, 0.07, 0.23, 14.83, -19.04, -8.54, 42.32, 10.35, 29.76,
0.09219741821289062,0.84, -0.07, 0.18, -4.70, -5.55, -3.97, 42.00, 10.13, 28.56,
0.09219741821289062,1.04, 0.00, 0.27, -11.84, 6.41, -0.12, 42.10, 11.24, 29.68,
0.09319758415222168,0.92, 0.06, 0.28, -5.62, 9.70, 3.78, 42.08, 11.00, 30.25,
0.09319758415222168,0.95, 0.05, 0.28, 5.31, 11.17, 3.05, 41.06, 10.83, 29.80,
0.09419751167297363,0.90, 0.02, 0.30, 6.23, -2.44, 5.74, 40.83, 9.59, 31.81,
0.09419751167297363,1.01, 0.01, 0.30, -2.20, -4.21, 2.81, 40.76, 9.55, 32.20,
0.09519767761230469,1.02, -0.03, 0.36, -8.36, -15.87, 4.27, 41.02, 9.53, 31.84,
0.09519767761230469,1.04, 0.22, 0.26, -32.10, -29.54, 8.67, 41.77, 9.36, 29.15,
0.09642171859741211,0.78, -0.00, 0.20, -28.81, 18.55, 14.95, 41.98, 9.18, 28.23,
0.0971977710723877,1.06, 0.26, 0.21, -29.60, 4.82, 18.13, 41.03, 9.02, 28.61,
0.0971977710723877,0.86, 0.26, 0.27, -0.06, 12.27, 3.23, 40.37, 8.23, 31.34,
0.09830355644226074,0.82, 0.29, 0.26, 5.80, 5.62, -13.24, 40.84, 8.73, 30.09,
0.09930133819580078,0.98, 0.30, 0.30, 15.32, 2.44, -9.46, 40.17, 8.89, 30.79,
0.09930133819580078,1.04, 0.15, 0.29, 17.94, -16.54, -19.10, 41.55, 9.09, 30.57,
0.10030436515808105,0.84, 0.02, 0.23, 8.18, -9.16, -4.03, 41.72, 9.91, 28.43,
0.10129809379577637,1.08, 0.13, 0.28, 0.18, 13.00, -16.66, 41.60, 9.94, 28.66,
0.10129809379577637,0.90, 0.11, 0.29, 15.20, -4.58, 1.77, 42.11, 10.56, 29.15,
0.10230517387390137,0.82, 0.03, 0.34, 9.64, 11.60, 5.80, 41.46, 9.86, 29.86,
0.10330581665039062,1.00, 0.04, 0.32, -5.00, -0.12, 0.92, 41.86, 9.34, 29.85,
0.10330581665039062,1.09, 0.05, 0.34, -9.52, -30.27, -0.12, 41.97, 9.24, 29.59,
0.10430026054382324,0.76, 0.18, 0.19, -4.94, -10.56, -6.16, 42.70, 9.31, 28.10,
0.10529470443725586,1.09, 0.09, 0.28, 7.08, 13.92, 2.56, 42.24, 9.39, 26.88,
0.10529470443725586,0.84, 0.08, 0.32, 2.26, 12.88, -5.43, 42.09, 9.70, 29.28,
0.10529470443725586,0.82, 0.12, 0.34, 1.53, 12.02, -10.93, 41.53, 10.00, 28.88,
0.1069040298461914,1.13, 0.11, 0.38, 8.12, -9.89, -9.77, 41.75, 11.11, 30.81,
0.1080176830291748,1.08, -0.10, 0.19, 3.48, -30.94, -2.14, 42.32, 11.30, 29.33,
0.1080176830291748,0.99, -0.07, 0.23, -8.54, 6.04, -9.09, 42.49, 12.18, 27.73,
0.10901880264282227,0.88, 0.02, 0.32, -11.05, -0.98, 6.35, 42.99, 12.45, 27.55,
0.11001372337341309,0.81, 0.03, 0.37, -2.99, 10.74, 1.10, 42.59, 11.76, 28.89,
0.11001372337341309,0.94, -0.02, 0.31, -2.69, 9.58, 4.15, 42.21, 12.08, 29.70,
0.11112761497497559,1.09, -0.01, 0.34, -3.48, -38.15, 5.13, 42.80, 11.07, 28.86,
0.11212778091430664,0.91, 0.21, 0.25, 9.95, -0.37, 0.73, 43.12, 11.56, 26.17,
0.11212778091430664,0.80, 0.03, 0.32, 19.47, 7.81, 1.89, 43.01, 10.29, 26.09,
0.11313772201538086,0.77, 0.06, 0.39, 10.74, 16.42, -5.92, 43.18, 10.33, 27.69,
0.11313772201538086,0.93, 0.04, 0.39, 6.29, 11.90, -4.52, 42.80, 10.95, 28.50,
0.1141364574432373,1.16, 0.10, 0.35, 5.68, -13.49, 0.61, 43.59, 11.30, 28.69,
0.1141364574432373,1.01, -0.11, 0.25, -6.23, 3.30, -10.13, 44.47, 10.75, 25.85,
0.11513423919677734,0.94, 0.11, 0.32, -7.81, 3.42, 12.33, 43.77, 11.15, 27.32,
0.11612629890441895,0.68, -0.02, 0.35, 1.16, 12.63, 8.91, 43.15, 10.42, 27.44,
0.11612629890441895,0.90, -0.03, 0.37, -11.72, 15.32, 3.42, 42.60, 9.48, 30.16,
0.11712503433227539,1.22, 0.03, 0.38, -16.54, -14.83, 3.11, 43.01, 9.99, 29.04,
0.11712503433227539,0.96, 0.22, 0.21, -10.62, -24.78, -3.23, 43.58, 10.39, 25.74,
0.11812305450439453,0.89, 0.10, 0.30, 6.96, 6.71, 1.34, 43.59, 9.61, 27.19,
0.11812305450439453,0.76, 0.11, 0.33, 7.32, 18.25, -12.88, 43.19, 10.30, 27.71,
0.11912250518798828,0.75, 0.06, 0.34, 8.73, 6.29, -8.18, 43.43, 10.89, 29.28,
0.12012720108032227,1.29, 0.13, 0.37, 16.36, -13.55, -9.95, 43.36, 11.54, 29.43,
0.12012720108032227,0.99, -0.16, 0.22, 3.54, -9.77, -1.95, 43.98, 10.88, 26.72,
0.12112021446228027,0.92, 0.04, 0.28, -18.98, 5.74, -3.78, 43.93, 11.35, 26.56,
0.12112021446228027,0.65, 0.00, 0.35, -4.03, 13.73, 10.01, 43.19, 11.05, 26.66,
0.12212443351745605,0.88, -0.08, 0.38, -7.08, 13.61, 8.18, 42.80, 10.85, 27.87,
0.12212443351745605,1.29, -0.00, 0.40, -13.18, -31.43, 16.66, 42.70, 9.90, 29.86,
0.12312436103820801,1.00, 0.28, 0.28, 1.83, -29.30, -7.26, 43.35, 9.81, 26.57,
0.12312436103820801,0.81, -0.03, 0.39, 6.47, 22.22, -3.66, 43.66, 9.22, 26.21,
0.12412738800048828,0.99, 0.02, 0.00, -89.17, -5.80, -1.83, 38.06, 30.10, 33.62,
0.21187925338745117,1.07, 0.11, 0.01, -42.42, 21.36, 5.98, 37.12, 31.93, 33.00,
0.3213949203491211,1.09, 0.12, -0.03, -2.69, 10.68, 25.45, 37.54, 31.82, 34.23,
0.430591344833374,0.98, 0.10, -0.00, -1.65, -7.08, 7.87, 37.54, 31.04, 33.31,
0.5406379699707031,0.95, 0.10, 0.06, -13.31, -6.53, 9.95, 38.00, 30.57, 32.59,
0.6499130725860596,0.95, 0.11, -0.02, -25.63, -3.36, -5.19, 38.33, 30.99, 30.83,
0.7599196434020996,1.02, 0.15, -0.05, -31.37, 10.68, -6.96, 38.23, 32.46, 30.94,
0.87066650390625,0.95, 0.09, -0.04, -18.19, 19.47, -8.48, 36.89, 33.54, 31.46,
0.9811110496520996,0.99, 0.10, -0.15, -23.56, 22.83, -17.27, 35.88, 35.78, 31.34,
1.091127872467041,1.08, 0.20, -0.20, -8.67, 1.77, -8.12, 34.97, 37.43, 31.03,
1.2000319957733154,1.06, 0.21, -0.19, 32.78, -8.18, 0.92, 34.40, 36.61, 31.88,
1.3101170063018799,1.01, 0.22, -0.06, 80.14, -14.71, -1.22, 34.88, 35.17, 31.24,
1.419736385345459,1.20, -0.15, -0.15, 110.35, -11.90, -16.91, 35.71, 32.07, 34.50,
1.5299792289733887,0.88, -0.09, -0.23, 125.31, -34.24, 0.24, 37.96, 26.70, 36.69,
1.6405158042907715,0.58, -0.20, 0.13, 70.13, -6.16, 10.19, 39.83, 20.78, 34.95,
1.7493245601654053,1.35, 0.15, 0.27, 87.22, 35.22, 28.87, 39.65, 16.35, 37.37,
1.8591017723083496,0.80, -0.12, -0.15, 66.89, 31.07, -19.29, 39.95, 12.67, 37.52,
1.969353437423706,0.80, 0.04, 0.00, 31.98, -9.34, -11.72, 39.25, 11.83, 39.05,
2.0793275833129883,1.47, -0.10, 0.20, -18.01, -9.70, -4.58, 39.60, 11.56, 38.79,
2.1890177726745605,1.00, -0.02, 0.04, -50.17, -3.42, -1.10, 39.75, 12.99, 37.98,
2.2988295555114746,0.15, 0.05, -0.14, -28.20, -22.71, 5.19, 40.30, 15.09, 37.51,
2.4098830223083496,1.90, -0.11, 0.46, 4.39, 26.31, 15.69, 40.25, 16.44, 36.19,
2.5198733806610107,1.33, 0.27, 0.40, 91.37, 5.98, 35.71, 40.05, 13.45, 36.96,
2.6302330493927,-0.06, -0.14, -0.25, 49.74, -28.14, 13.37, 39.27, 7.63, 35.91,
2.7394752502441406,0.04, -0.29, 0.12, -47.00, -47.18, -17.82, 40.56, 6.81, 33.22,
2.8494880199432373,2.54, -0.62, 0.63, -126.16, 20.45, -16.85, 41.41, 12.22, 32.90,
2.959249496459961,0.54, 0.40, -0.02, -52.98, 22.46, 7.32, 41.31, 18.86, 33.69,
3.0688843727111816,-0.15, 0.14, -0.07, 46.81, -34.24, 1.34, 41.71, 18.33, 30.43,
3.179201602935791,2.03, 0.42, 0.83, 75.87, 14.83, 39.00, 41.37, 15.28, 33.22,
3.289515733718872,1.10, -0.01, 0.21, 96.19, -16.48, 37.41, 41.11, 10.57, 32.24,
3.3986167907714844,-0.72, -0.12, -0.32, 10.93, 8.36, -78.19, 41.13, 5.90, 30.96,
3.5076546669006348,1.40, -0.29, 0.64, -31.92, 4.58, -18.98, 42.14, 8.67, 29.46,
3.618155002593994,1.88, -0.21, 0.55, -134.46, 5.62, -51.51, 42.05, 16.02, 31.53,
3.7284746170043945,-0.45, 0.20, -0.13, -34.55, -31.56, -22.46, 42.19, 20.03, 27.11,
3.8377182483673096,0.16, -0.01, -0.03, -15.56, 50.11, 26.73, 42.40, 20.30, 26.88,
3.948369264602661,2.38, 0.32, 0.79, 63.84, 32.04, 22.16, 42.47, 17.47, 30.58,
4.05821418762207,-0.08, -0.50, 0.01, 53.41, 25.70, 50.23, 41.69, 11.88, 30.93,
4.167187213897705,-0.18, -0.31, -0.11, 11.35, -63.90, -31.98, 40.93, 9.69, 31.40,
4.2762696743011475,1.78, 0.16, 0.88, -77.76, 35.03, -40.41, 43.18, 12.48, 30.79,
4.386413812637329,1.04, 0.13, 0.30, -67.20, -8.54, -14.34, 42.79, 19.27, 30.52,
4.497411489486694,-0.22, 0.02, -0.34, 91.37, -57.56, -11.29, 40.81, 19.35, 31.30,
4.607113361358643,3.34, 0.25, 0.53, -5.25, 36.87, 53.41, 43.13, 17.36, 29.20,
4.717261552810669,1.54, 0.47, 0.47, 87.89, 22.46, 0.43, 42.53, 13.87, 31.48,
4.826073408126831,-0.12, 0.11, -0.11, 17.21, -27.40, -0.98, 40.45, 8.67, 33.34,
4.937200307846069,0.22, -0.11, 0.01, -24.29, -59.02, -49.99, 41.67, 10.08, 32.80,
5.046760082244873,2.37, -0.41, 0.74, -85.27, 15.87, -17.82, 42.70, 17.60, 31.15,
5.156259536743164,0.33, 0.32, 0.03, -29.11, -7.81, 18.68, 41.71, 20.35, 28.86,
5.266547679901123,-0.16, 0.28, -0.24, 71.11, -25.76, 14.04, 40.89, 18.53, 30.98,
5.375004053115845,1.54, -0.12, 0.33, 73.85, 4.82, 1.59, 42.72, 14.78, 31.69,
5.48466157913208,0.96, 0.05, 0.32, 101.01, -11.78, 34.00, 41.96, 11.50, 33.20,
5.594066143035889,-0.25, -0.11, -0.29, 10.25, -10.56, -22.83, 41.41, 8.67, 30.70,
5.703385353088379,2.48, -0.67, 0.99, -31.19, 62.01, -48.77, 43.30, 10.95, 28.63,
5.814463138580322,1.80, -0.00, 0.50, -102.91, 2.08, -37.96, 43.23, 17.88, 30.02,
5.923517942428589,-0.36, 0.00, -0.18, 6.16, -41.69, 18.62, 42.47, 18.49, 28.23,
6.033838748931885,0.08, 0.06, 0.03, -37.72, 19.71, 56.27, 42.68, 16.78, 27.72,
6.142781972885132,2.50, 0.67, 0.69, 88.13, 31.86, 5.19, 42.54, 11.58, 31.25,
6.251784324645996,0.23, -0.36, -0.07, 48.34, 50.90, 35.34, 41.21, 6.15, 30.73,
6.362417459487915,-0.14, -0.31, -0.12, -3.72, -62.56, -35.34, 40.09, 3.92, 32.01,
6.471656560897827,2.39, 0.72, 0.86, -99.12, 33.51, -55.73, 43.07, 9.92, 30.38,
6.5818562507629395,1.53, 0.21, 0.20, -110.17, -18.86, -17.09, 43.10, 15.83, 29.57,
6.692385196685791,-0.42, 0.09, -0.20, 30.27, -26.73, -10.74, 42.03, 17.30, 27.29,
6.801278591156006,1.57, 0.48, 1.07, 35.89, 114.38, 55.91, 42.05, 15.66, 28.86,
6.910087585449219,1.98, 0.59, 0.41, 97.47, 12.39, 8.30, 41.83, 11.93, 32.43,
7.018840789794922,0.01, -0.24, -0.21, 19.90, -26.55, -2.50, 40.81, 6.62, 31.23,
7.129022598266602,0.29, -0.20, 0.20, -33.94, -23.62, -30.52, 41.36, 8.12, 28.66,
7.23913049697876,2.53, -0.51, 0.73, -104.86, 25.51, -19.71, 41.97, 14.99, 31.20,
7.3485801219940186,0.49, 0.30, -0.05, -56.03, -40.89, 4.09, 42.48, 18.41, 28.66,
7.457629203796387,-0.30, 0.23, -0.13, 39.86, -16.54, 18.62, 41.97, 18.01, 27.98,
7.568044662475586,2.21, 0.25, 0.63, 79.53, 12.02, 45.84, 41.77, 15.21, 30.86,
7.678799629211426,1.09, 0.04, 0.25, 98.27, 0.85, 26.73, 41.50, 10.19, 32.28,
7.787238359451294,-0.26, -0.06, -0.20, 11.47, -9.46, -8.67, 40.82, 5.81, 31.37,
7.897377014160156,1.99, -0.54, 0.74, -54.57, 47.79, -35.89, 41.97, 10.62, 30.05,
8.006125450134277,1.97, -0.30, 0.66, -125.67, -21.24, -30.40, 42.14, 16.11, 29.50,
8.116259098052979,-0.21, 0.28, 0.10, -82.03, 55.18, -9.28, 42.00, 19.63, 27.25,
8.225618600845337,0.26, 0.09, -0.04, 0.61, 4.46, 31.62, 41.65, 19.03, 26.60,
8.336471319198608,2.47, 0.95, 0.74, 88.01, 45.10, 29.97, 42.11, 15.72, 30.25,
8.445223093032837,0.57, -0.15, -0.00, 90.70, 22.71, 42.05, 41.49, 8.39, 30.31,
8.556208372116089,-0.29, -0.31, -0.21, 21.91, -65.98, -26.12, 39.75, 4.97, 31.47,
8.665709018707275,1.88, 0.27, 0.62, -59.57, 2.81, -69.95, 42.35, 10.44, 31.73,
8.776445865631104,1.41, -0.17, 0.35, -121.22, -35.52, -39.18, 41.63, 16.28, 30.80,
8.88565444946289,-0.39, -0.16, -0.29, 4.76, -37.72, -16.72, 40.86, 19.54, 30.85,
8.996443271636963,1.00, 0.46, 0.71, -1.16, 38.02, 59.81, 42.15, 19.93, 30.11,
9.107532024383545,1.98, 0.59, 0.39, 131.77, 33.81, 38.21, 41.10, 15.88, 32.64,
9.216699361801147,-0.24, -0.11, 0.07, 79.28, 81.73, 0.24, 40.65, 7.25, 32.35,
9.325824975967407,0.10, -0.34, 0.14, -0.73, -57.98, -25.33, 41.64, 5.32, 31.51,
9.43637752532959,2.49, -0.26, 0.67, -109.92, 19.23, -27.40, 42.03, 13.02, 32.56,
9.546587228775024,0.58, 0.32, 0.05, -112.00, -3.23, -26.98, 41.20, 19.32, 31.24,
9.655843496322632,-0.12, 0.22, -0.35, 29.54, -53.53, -0.24, 40.37, 21.73, 31.05,
9.765967845916748,2.50, -0.06, 0.68, 25.57, -8.42, 81.18, 41.60, 21.78, 30.90,
9.877195835113525,1.15, 0.18, 0.23, 122.80, 23.32, 44.62, 40.31, 16.04, 31.64,
9.98710298538208,0.00, -0.09, -0.27, 74.46, 5.74, -0.92, 38.84, 6.93, 33.33,
10.097150325775146,0.80, -0.36, 0.69, -11.60, -100.34, -60.12, 42.70, 9.80, 29.91,
10.206886768341064,2.30, -0.43, 0.67, -123.60, 8.30, -25.82, 42.32, 16.31, 32.37,
10.316941261291504,0.04, 0.44, 0.09, -93.99, 58.23, -16.85, 42.21, 21.19, 28.83,
10.426384449005127,-0.26, 0.30, -0.15, 26.86, 20.20, 10.62, 41.76, 21.01, 28.47,
10.535457611083984,2.08, 0.34, 0.50, 95.83, 14.89, 31.31, 41.22, 18.49, 30.82,
10.64540982246399,0.87, -0.04, 0.17, 115.97, 4.15, 42.48, 41.10, 12.70, 31.81,
10.753998756408691,-0.15, -0.06, -0.23, 46.69, -18.92, -16.36, 40.14, 5.68, 31.81,
10.863881349563599,2.70, -1.11, 0.31, -39.49, 1.40, -52.67, 42.75, 8.26, 29.50,
10.975332736968994,1.72, -0.08, 0.44, -153.50, -27.10, -32.10, 42.57, 15.73, 31.43,
11.084782361984253,-0.20, 0.26, -0.04, -31.01, -55.36, -15.87, 41.42, 19.68, 27.86,
11.196581840515137,0.39, 0.12, 0.16, 9.52, 24.48, 29.85, 41.39, 20.64, 27.21,
11.306457757949829,2.23, 0.65, 0.59, 106.26, 33.33, -0.18, 42.38, 18.46, 29.24,
11.416319131851196,0.52, -0.28, -0.05, 77.51, 18.55, 43.64, 41.63, 9.25, 31.88,
11.525579929351807,-0.29, -0.28, -0.07, 3.42, -38.02, -24.41, 41.08, 9.05, 29.55,
11.63658595085144,2.16, 0.34, 0.63, -66.96, 17.88, -46.33, 42.19, 12.93, 30.02,
11.745276689529419,1.08, 0.35, 0.22, -94.48, -17.40, -17.70, 41.41, 17.25, 29.24,
11.856290340423584,-0.35, 0.14, -0.21, 18.98, -31.01, 14.34, 41.10, 18.57, 28.32,
11.965664863586426,3.12, 0.24, 0.58, 21.61, 45.35, 52.73, 41.99, 17.11, 27.73,
12.07590627670288,1.57, 0.26, 0.40, 111.57, 0.37, 26.73, 41.58, 9.58, 31.15,
12.186123609542847,-0.24, -0.16, -0.07, 20.14, -36.93, 3.97, 41.19, 6.36, 28.52,
12.295768976211548,0.66, -0.23, 0.53, -69.95, 1.28, -26.61, 42.33, 7.85, 27.26,
12.407397747039795,2.15, -0.29, 0.70, -128.78, 6.90, -29.17, 42.71, 13.92, 30.15,
12.517983436584473,0.12, 0.32, -0.05, -64.21, 6.84, 4.27, 41.63, 18.16, 28.44,
12.628300905227661,0.04, 0.22, -0.15, 40.95, -1.40, 10.38, 41.24, 18.04, 26.87,
12.73856806755066,2.09, 0.44, 0.73, 81.30, 39.98, 10.13, 41.98, 13.84, 30.43,
12.84616732597351,0.62, -0.17, 0.07, 88.56, 3.91, 41.63, 41.39, 7.03, 31.20,
12.955596208572388,-0.25, -0.29, -0.25, 31.68, -26.43, -37.60, 41.17, 5.93, 29.03,
13.065222024917603,2.94, -0.74, 0.11, -63.84, 22.03, -52.12, 42.76, 9.31, 27.93,
13.177042722702026,1.45, 0.11, 0.46, -116.27, -31.92, -22.46, 42.76, 15.31, 30.47,
13.286561965942383,-0.32, -0.01, -0.18, -4.46, -29.54, 3.05, 42.58, 18.15, 25.57,
13.397202253341675,0.74, 0.23, 0.64, 9.77, 48.46, 49.19, 42.38, 16.74, 27.94,
13.507098197937012,2.22, 0.56, 0.65, 95.03, 40.04, 18.80, 41.46, 13.59, 30.15,
13.61792802810669,-0.12, -0.38, -0.10, 19.90, 40.10, 14.53, 41.81, 7.37, 29.35,
13.728100061416626,-0.07, -0.23, 0.00, -22.40, -42.54, -20.87, 41.89, 7.48, 27.72,
13.838554859161377,2.56, -0.23, 0.77, -89.42, 32.96, -33.33, 42.72, 12.02, 28.80,
13.946999073028564,1.00, 0.19, 0.18, -69.52, -30.94, -5.07, 42.48, 16.99, 29.41,
14.056668043136597,-0.40, 0.20, -0.20, 4.39, -42.72, 13.67, 42.20, 18.31, 27.94,
14.167248964309692,3.68, 0.54, -0.07, 19.90, 26.00, 33.69, 41.56, 15.84, 30.15,
14.276025772094727,1.59, 0.37, 0.39, 105.71, -8.97, 20.02, 41.82, 11.41, 29.93,
14.38645887374878,-0.13, -0.17, -0.13, 25.82, -34.18, 6.16, 41.30, 6.98, 29.03,
14.495826482772827,0.45, -0.18, 0.63, -49.07, -9.89, -27.04, 42.19, 9.09, 27.45,
14.606450080871582,2.47, -0.37, 0.82, -114.01, 15.08, -33.02, 42.24, 14.07, 29.09,
14.715874433517456,0.57, 0.28, 0.01, -50.90, -10.44, 15.81, 41.58, 18.73, 28.83,
14.825733423233032,-0.29, 0.27, -0.06, 23.07, -0.67, -4.76, 41.89, 18.16, 26.48,
14.936501502990723,2.07, 0.19, 0.60, 101.62, 34.12, 12.57, 41.47, 15.33, 30.26,
15.045763492584229,0.85, -0.12, 0.27, 103.33, 2.26, 53.53, 41.70, 9.90, 30.16,
15.156095504760742,-0.28, -0.20, -0.23, 25.70, -25.88, -23.99, 40.64, 6.84, 30.30,
15.2672438621521,2.44, -0.68, 0.40, -46.94, 20.57, -35.52, 42.35, 8.39, 28.08,
15.377448320388794,1.74, -0.05, 0.50, -119.02, -23.38, -30.64, 42.11, 13.43, 30.52,
15.487267971038818,0.03, 0.08, -0.06, -2.75, -8.73, 6.90, 41.52, 17.05, 28.86,
15.597487449645996,0.09, 0.18, -0.16, 31.98, 10.68, 20.63, 42.25, 17.18, 27.40,
15.707523822784424,2.76, 0.99, 0.75, 75.62, 48.71, 0.00, 41.46, 12.76, 31.48,
15.816522598266602,0.39, -0.25, 0.01, 76.90, 14.34, 28.08, 40.92, 6.85, 29.35,
15.925430059432983,-0.36, -0.20, -0.15, 5.07, -34.97, -35.71, 39.69, 5.73, 29.06,
16.03516721725464,2.08, 0.61, 0.69, -46.57, 11.90, -58.41, 41.86, 8.36, 28.06,
16.14546489715576,1.49, -0.15, 0.42, -119.63, -31.43, -34.91, 41.33, 13.00, 30.85,
16.25600528717041,-0.31, 0.11, -0.16, 16.05, -3.17, -1.77, 41.17, 17.43, 29.36,
16.366266012191772,1.34, 0.45, 0.74, 36.07, 57.86, 43.15, 41.88, 16.56, 28.41,
16.477495908737183,2.25, 0.42, 0.50, 99.18, 40.59, 12.82, 41.19, 12.18, 31.47,
16.58638596534729,-0.24, -0.24, 0.03, 3.11, 62.68, 9.22, 39.97, 6.81, 31.54,
16.696133375167847,-0.00, -0.25, 0.22, -31.80, -51.33, -23.19, 41.05, 7.24, 28.82,
16.80552315711975,2.67, -0.37, 0.65, -115.30, 24.78, -5.55, 42.52, 11.77, 29.09,
16.915697813034058,0.37, 0.40, 0.02, -63.29, -25.21, -8.36, 41.37, 17.66, 28.55,
17.026038885116577,-0.32, 0.22, -0.14, 31.43, -23.68, 17.88, 41.69, 17.22, 27.21,
17.137035369873047,2.02, -0.13, 0.75, 91.55, 13.92, 35.95, 42.03, 14.22, 30.32,
17.247472047805786,1.09, 0.02, 0.27, 106.99, -10.25, 32.41, 41.63, 10.27, 31.68,
17.357341289520264,-0.26, -0.10, -0.19, 13.18, -27.83, -13.18, 41.22, 6.08, 29.37,
17.4665744304657,1.80, -0.36, 0.70, -36.38, -5.00, -44.13, 41.96, 7.52, 28.10,
17.57723569869995,2.15, -0.19, 0.67, -119.81, 9.52, -15.44, 42.07, 14.58, 31.21,
17.687380075454712,-0.16, 0.30, 0.02, -39.49, 25.39, -4.09, 41.93, 17.41, 28.34,
17.795737266540527,0.09, 0.20, -0.18, 43.58, -13.85, 23.19, 42.35, 16.08, 26.90,
17.904563426971436,2.46, 0.86, 0.74, 88.81, 41.69, 5.68, 41.63, 11.77, 30.75,
18.013566255569458,0.21, -0.38, -0.08, 48.95, 5.86, 26.37, 41.47, 7.57, 29.90,
18.123573541641235,-0.31, -0.30, -0.13, 10.68, -54.93, -42.72, 40.33, 6.18, 29.20,
18.23404312133789,2.89, 0.35, 0.73, -79.65, 59.75, -48.83, 42.20, 9.70, 27.69,
18.3445405960083,1.20, 0.19, 0.31, -110.35, -33.63, -14.47, 42.00, 17.11, 28.81,
18.454381227493286,-0.36, 0.07, -0.23, 37.29, -26.92, 18.19, 41.64, 16.74, 26.43,
18.564000844955444,1.29, 0.59, 1.03, 92.35, 102.23, 31.86, 42.42, 15.52, 27.58,
18.675514459609985,2.03, 0.34, 0.55, 122.86, 31.80, 26.12, 40.88, 11.39, 30.60,
18.78541898727417,0.21, -0.10, -0.24, 42.42, 39.06, 3.42, 40.88, 4.86, 30.32,
18.894425630569458,-0.22, -0.26, 0.09, -17.27, -49.87, -32.59, 40.48, 5.31, 28.55,
19.00397825241089,2.76, -0.28, 0.66, -97.78, 22.58, -1.16, 42.66, 11.73, 30.88,
19.11548352241516,0.37, 0.45, 0.03, -84.41, -44.19, -17.76, 42.54, 16.31, 27.88,
19.224109649658203,-0.13, 0.18, -0.10, 34.00, -29.54, -1.95, 42.60, 16.83, 26.53,
19.33651566505432,4.00, 0.49, -0.05, -5.37, -1.89, 54.44, 42.21, 15.77, 29.21,
19.44571042060852,1.39, 0.12, 0.35, 108.22, -9.40, 26.00, 41.56, 12.59, 31.08,
19.5553035736084,-0.19, -0.03, -0.14, 12.45, -18.74, -6.90, 40.78, 7.91, 29.61,
19.664960622787476,0.39, -0.02, 0.38, -76.29, 26.73, 4.76, 42.58, 10.97, 28.34,
19.77384066581726,2.48, -0.36, 0.81, -109.25, 16.17, -7.81, 42.77, 15.71, 29.53,
19.88420867919922,0.00, 0.31, 0.02, -69.09, 1.40, -10.74, 42.70, 19.10, 27.43,
19.99416971206665,-0.41, 0.17, -0.32, 47.42, -14.40, 8.61, 41.89, 19.41, 26.00,
20.10392427444458,2.13, 0.09, 0.77, 90.88, 32.84, 26.06, 42.33, 17.15, 29.09,
20.212544202804565,0.84, -0.24, 0.19, 93.99, -4.82, 38.82, 41.56, 11.80, 31.14,
20.32308006286621,-0.24, -0.09, -0.13, 24.11, -44.86, -12.88, 40.59, 7.39, 31.35,
20.433328866958618,1.74, -0.40, 0.45, -45.59, 25.15, -47.61, 41.86, 9.81, 29.30,
20.542914867401123,1.96, -0.14, 0.53, -119.69, -13.18, -20.14, 41.81, 14.55, 30.81,
20.653000593185425,-0.17, 0.18, -0.09, -34.06, 44.37, -1.83, 42.54, 17.66, 28.76,
20.76259160041809,-0.06, 0.08, -0.30, 8.85, 13.49, 29.60, 42.29, 16.85, 27.54,
20.873348474502563,2.69, 0.87, 0.77, 78.19, 26.86, 10.31, 42.14, 13.94, 31.93,
20.981491804122925,0.34, -0.33, 0.00, 47.85, 10.99, 30.46, 41.41, 9.17, 29.82,
21.09113121032715,-0.47, -0.18, -0.22, 23.80, -69.15, -39.73, 41.83, 7.69, 29.13,
21.199623584747314,2.20, 0.22, 0.96, -70.92, 39.25, -52.25, 42.32, 12.71, 30.09,
21.30920910835266,1.09, 0.42, 0.20, -96.01, -5.74, -11.05, 41.91, 17.48, 29.24,
21.41936445236206,-0.40, 0.01, -0.24, 48.89, -16.91, 6.29, 41.05, 17.58, 30.70,
21.528576850891113,1.46, 0.39, 2.53, -62.13, 81.12, 67.20, 42.35, 15.98, 27.43,
21.637958526611328,1.87, 0.48, 0.53, 99.00, 17.09, 14.16, 41.65, 12.46, 30.05,
21.746920585632324,0.05, -0.04, -0.17, 40.41, -41.99, -15.93, 40.82, 8.18, 30.60,
21.856812238693237,-0.27, -0.03, 0.11, 32.04, -76.60, -33.02, 42.80, 8.89, 26.70,
21.966123819351196,2.80, -0.43, 0.69, -72.39, 18.07, -25.94, 43.21, 12.11, 29.24,
22.07569193840027,0.97, 0.38, 0.23, -62.07, -7.93, -1.34, 41.71, 17.16, 27.98,
22.185065984725952,0.08, 0.17, -0.21, 41.56, -28.56, -9.46, 41.38, 15.92, 29.28,
22.29472255706787,3.26, 0.26, -0.05, -8.24, 32.17, 65.73, 42.41, 14.84, 27.53,
22.40448498725891,1.40, 0.32, 0.41, 109.37, -10.25, 38.09, 41.35, 11.90, 31.40,
22.515512228012085,0.10, -0.02, -0.18, 38.15, -10.86, -21.85, 39.53, 6.90, 32.48,
22.624565601348877,0.59, -0.18, 0.00, -31.98, -79.16, -40.71, 41.72, 9.57, 28.91,
22.734617710113525,2.14, -0.33, 0.80, -103.70, 15.38, -29.48, 41.77, 15.60, 29.74,
22.843645811080933,0.20, 0.17, 0.15, -53.16, 26.37, 8.48, 41.69, 18.42, 29.96,
22.95268964767456,-0.11, 0.27, -0.23, 31.07, -22.89, 27.28, 41.31, 18.40, 29.85,
23.06239414215088,1.92, 0.05, 0.52, 57.56, 22.09, 4.76, 42.60, 15.52, 29.83,
23.171396017074585,1.04, -0.17, 0.17, 77.88, 18.80, 62.32, 41.13, 12.27, 31.51,
23.279955863952637,-0.11, -0.16, -0.17, 10.62, -21.36, -32.35, 40.65, 7.73, 31.21,
23.390132188796997,2.08, 0.16, 0.22, -45.53, -12.15, -50.90, 42.63, 13.83, 30.91,
23.500998973846436,1.36, -0.12, 0.49, -75.38, 0.24, -15.56, 41.69, 18.36, 30.40,
23.609865427017212,0.03, 0.06, -0.27, 53.10, 5.37, 12.70, 41.17, 19.24, 30.74,
23.72065234184265,0.18, 0.02, -0.02, 30.09, -27.83, 39.86, 41.03, 16.56, 30.27,
23.8310809135437,2.30, 0.93, 0.55, 103.64, 29.48, -0.92, 42.20, 12.54, 31.46,
23.94067096710205,0.14, -0.20, 0.02, 51.09, -0.31, -9.64, 40.38, 5.79, 30.86,
24.0513973236084,-0.21, -0.21, -0.11, -22.40, -72.51, -12.88, 40.66, 8.52, 30.73,
24.16078495979309,1.83, 0.27, 0.63, -73.55, 12.33, -52.00, 42.64, 11.83, 29.87,
24.26983642578125,0.91, 0.26, 0.24, -83.50, -15.87, -20.32, 41.94, 17.30, 30.77,
24.379812479019165,-0.34, 0.03, -0.21, 49.87, -17.09, 14.71, 41.21, 18.12, 28.43,
24.48990821838379,1.72, 0.38, 0.92, 71.72, 54.32, 41.93, 41.88, 15.87, 28.66,
24.599271535873413,1.98, 0.38, 0.45, 114.50, 19.17, 28.93, 41.88, 11.74, 32.26,
24.71051025390625,0.07, -0.19, -0.05, 43.76, -8.67, 0.98, 40.15, 4.61, 31.58,
24.820821523666382,0.06, -0.21, 0.13, -36.38, -49.01, -22.95, 41.43, 5.81, 29.55,
24.929996967315674,2.49, -0.31, 0.79, -106.38, 19.96, -23.25, 42.46, 11.38, 29.69,
25.03854513168335,0.61, 0.41, 0.05, -68.24, -34.36, -29.17, 41.81, 16.88, 29.42,
25.14873957633972,-0.06, 0.12, -0.08, 18.19, -43.95, 13.00, 42.13, 18.14, 27.92,
25.25871205329895,4.00, 0.38, -0.24, 6.47, -3.42, 58.17, 42.55, 16.27, 27.88,
25.3690505027771,1.40, 0.19, 0.38, 119.69, 2.81, 43.52, 41.86, 8.97, 30.60,
25.478764057159424,-0.24, -0.15, -0.16, 25.21, -14.10, 6.96, 40.95, 5.31, 31.35,
25.58945655822754,0.44, -0.13, 0.39, -66.41, -40.47, -13.31, 42.64, 7.02, 27.06,
25.69916033744812,2.28, -0.33, 0.77, -120.12, 11.60, -21.79, 42.77, 11.35, 29.71,
25.808815956115723,0.16, 0.35, -0.15, -73.12, -11.90, -9.52, 42.30, 16.26, 28.30,
25.91929602622986,-0.19, 0.19, -0.21, 41.63, -9.46, -8.30, 42.13, 17.02, 25.06,
26.029070615768433,1.91, 0.39, 0.79, 88.26, 18.31, 4.39, 42.76, 14.92, 30.77,
26.13922381401062,0.90, -0.11, 0.30, 88.38, 0.18, 39.00, 41.93, 10.03, 30.53,
26.247921466827393,-0.25, -0.07, -0.26, 5.19, 3.11, -3.78, 41.58, 7.47, 29.74,
26.357523202896118,1.34, -0.13, 1.01, -47.42, 31.43, -27.53, 42.82, 10.05, 27.00,
26.467180252075195,2.03, -0.03, 0.63, -105.47, 4.58, -25.39, 43.38, 14.23, 28.93,
26.576711654663086,0.03, 0.27, 0.06, -49.80, 23.01, -8.61, 41.97, 17.57, 27.54,
26.686793565750122,-0.26, 0.22, -0.11, 46.63, -2.56, -0.73, 42.38, 17.47, 25.44,
26.797039270401,2.23, 0.44, 0.78, 87.46, 34.06, 3.85, 41.85, 14.39, 29.46,
26.905882835388184,0.50, -0.32, 0.17, 81.97, -7.93, 36.13, 41.53, 9.03, 29.08,
27.01622223854065,-0.13, -0.12, -0.24, 19.17, -24.72, -10.31, 40.64, 7.17, 28.53,
27.125949144363403,2.72, -0.81, 1.11, -60.91, 28.56, -24.11, 42.14, 10.66, 27.53,
27.235770225524902,1.70, 0.25, 0.51, -105.22, -14.16, -28.20, 42.37, 16.02, 29.58,
27.346070766448975,-0.11, 0.14, -0.13, -3.78, -10.68, 8.91, 42.09, 17.87, 28.20,
27.455665588378906,-0.08, 0.07, -0.19, 25.57, 6.96, 31.62, 42.14, 16.22, 28.74,
27.56621813774109,2.88, 0.95, 0.84, 91.19, 26.73, 0.49, 42.20, 12.23, 30.68,
27.675055265426636,0.33, -0.30, 0.11, 64.76, 0.61, 34.36, 41.59, 6.60, 28.15,
27.784146070480347,-0.50, -0.11, -0.24, 13.12, -24.05, -34.85, 40.92, 5.57, 28.47,
27.894102811813354,3.25, -0.57, 0.07, -15.75, 18.01, -38.15, 42.71, 8.80, 28.17,
28.00412940979004,1.41, 0.04, 0.40, -127.20, -16.42, -32.23, 42.48, 15.16, 30.31,
28.114207983016968,-0.35, 0.10, -0.10, 3.66, -20.45, 2.69, 42.03, 18.29, 28.21,
28.2231502532959,0.02, 0.01, -0.24, 18.62, 13.73, 16.72, 41.89, 18.63, 28.70,
28.332614183425903,2.55, 0.57, 0.81, 89.11, 20.32, 12.76, 41.74, 15.23, 30.66,
28.44216537475586,0.57, -0.21, 0.00, 69.58, 10.07, 36.80, 41.16, 10.16, 30.42,
28.550645112991333,-0.40, -0.18, -0.20, 17.58, -40.71, -17.94, 40.37, 7.78, 28.99,
28.661170959472656,3.11, 0.21, 0.43, -50.54, 27.47, -43.64, 41.65, 9.75, 27.86,
28.772242784500122,1.29, 0.09, 0.41, -100.83, -32.23, -11.72, 42.11, 15.14, 29.14,
28.88337802886963,-0.12, 0.10, -0.17, 29.79, -8.36, 7.87, 41.81, 16.21, 28.23,
28.991708755493164,0.27, -0.01, -0.23, 16.85, 7.75, 37.11, 42.25, 15.14, 25.65,
29.101818323135376,2.44, 0.55, 0.69, 73.12, 33.14, 32.47, 41.83, 12.18, 30.32,
29.211989641189575,0.11, -0.29, -0.00, 15.69, 34.61, 14.34, 40.73, 7.46, 29.26,
29.32151484489441,-0.28, -0.23, -0.18, 8.12, -64.03, -26.31, 40.20, 7.47, 28.77,
29.432595252990723,1.88, 0.32, 0.92, -78.25, 44.19, -38.51, 41.55, 11.49, 28.27,
29.54295325279236,1.10, 0.12, 0.31, -87.16, -16.54, -17.27, 41.56, 17.87, 31.87,
29.652779817581177,-0.33, 0.00, -0.26, 47.06, -41.38, 18.80, 41.26, 15.99, 28.42,
29.762723684310913,0.92, -0.04, 0.09, -16.66, 32.96, 54.32, 41.81, 14.83, 26.67,
29.87241005897522,2.48, 0.44, 0.65, 110.72, 38.02, 10.13, 41.70, 11.22, 29.39,
29.981439113616943,0.32, -0.22, -0.13, 47.97, 0.00, -1.65, 41.20, 5.90, 28.94,
30.092397451400757,-0.38, -0.26, -0.07, 8.42, -41.44, -16.05, 40.84, 5.15, 28.50,
30.202155828475952,2.11, 0.02, 0.62, -46.88, 12.27, -57.74, 42.11, 6.63, 27.77,
30.311824798583984,1.08, 0.23, 0.31, -107.97, -37.05, -27.47, 41.15, 15.77, 29.31,
30.42069411277771,-0.56, -0.09, -0.26, 45.84, -28.69, -22.83, 41.10, 16.86, 26.44,
30.531156301498413,1.05, -0.00, 0.02, -22.64, 23.25, 52.73, 42.13, 15.88, 25.60,
30.640601873397827,2.42, 0.41, 0.75, 102.23, 33.57, 21.91, 41.60, 13.00, 29.61,
30.749720096588135,-0.14, -0.22, 0.14, 26.31, 86.06, 7.93, 41.14, 7.36, 27.50,
30.860143899917603,-0.08, -0.31, -0.07, 22.03, -56.46, -35.83, 41.58, 6.92, 28.09,
30.969670057296753,2.31, -0.12, 0.81, -103.33, 14.22, -34.36, 43.14, 13.31, 30.53,
31.080328941345215,1.28, 0.26, 0.36, -91.74, -37.11, 1.59, 42.74, 17.19, 27.61,
31.18947982788086,-0.39, 0.02, -0.23, 47.00, -45.29, -9.28, 42.08, 17.70, 26.09,
31.30006170272827,2.65, 0.49, 2.71, -110.41, 148.68, 59.75, 42.68, 17.16, 26.14,
31.408610820770264,1.91, 0.48, 0.41, 123.47, 5.37, 30.46, 42.07, 12.99, 30.65,
31.517991304397583,-0.11, -0.13, -0.25, 48.89, -9.52, -3.17, 40.66, 6.41, 28.65,
31.628337383270264,-0.08, -0.12, 0.29, -53.47, 4.15, -11.90, 41.43, 5.82, 27.70,
31.738047122955322,2.33, -0.23, 0.94, -77.76, 23.32, -35.03, 42.70, 10.53, 30.04,
31.847617149353027,0.79, 0.31, 0.14, -90.76, -7.87, -9.40, 42.83, 15.05, 28.14,
31.958168268203735,-0.17, 0.28, -0.25, 47.18, -33.75, -17.09, 42.19, 16.03, 25.29,
32.06741428375244,3.41, 0.20, 1.31, 5.86, 141.48, 36.56, 42.59, 14.70, 26.51,
32.17833948135376,1.90, 0.18, 0.55, 134.52, 5.37, 18.74, 41.30, 10.34, 30.92,
32.28832030296326,0.12, -0.30, -0.48, 33.08, -34.85, -4.82, 41.17, 4.97, 29.48,
32.39772319793701,0.64, -0.14, 0.14, -106.20, 18.49, 8.67, 41.92, 7.47, 28.50,
32.50734496116638,2.75, -0.38, 0.77, -124.69, 9.89, -9.58, 41.72, 12.56, 30.14,
32.617302894592285,0.40, 0.33, -0.11, -68.42, 6.77, 5.25, 42.04, 16.28, 29.44,
32.72626566886902,-0.09, 0.31, -0.03, 63.42, -62.50, -7.87, 41.67, 16.78, 27.44,
32.83546829223633,3.18, 0.32, 1.05, 37.11, 48.10, 27.47, 41.50, 15.70, 27.58,
32.94454050064087,1.45, 0.22, 0.43, 121.77, -26.86, 37.60, 40.45, 12.71, 31.03,
33.05440425872803,-0.10, -0.06, -0.37, 34.48, -70.31, -0.85, 40.26, 6.31, 29.43,
33.16403293609619,0.69, -0.01, 0.44, -53.65, 6.35, 1.53, 42.21, 7.02, 27.81,
33.27280020713806,2.51, -0.40, 0.88, -98.88, 1.83, -34.73, 41.86, 11.39, 29.69,
33.3848192691803,0.23, 0.32, -0.15, -84.78, 16.17, 1.04, 41.81, 15.73, 27.15,
33.49504590034485,-0.20, 0.26, -0.02, 29.30, -33.63, 23.99, 41.80, 16.69, 25.67,
33.605265617370605,2.26, 0.01, 0.74, 28.50, 85.88, 27.47, 41.66, 14.84, 27.99,
33.71383476257324,1.10, -0.07, 0.28, 132.02, -25.70, 45.47, 40.63, 11.72, 30.24,
33.82345461845398,-0.69, -0.14, 0.01, 26.92, -74.65, -39.86, 40.33, 5.86, 28.28,
33.93448805809021,0.54, -0.08, 0.17, -18.74, -39.98, -7.14, 41.59, 7.65, 27.49,
34.045137882232666,2.70, -0.24, 0.89, -124.33, 15.26, -17.21, 41.05, 11.52, 30.73,
34.15503811836243,0.43, 0.30, -0.09, -98.63, 39.61, -18.01, 40.55, 14.88, 29.39,
34.264506101608276,-0.15, 0.19, -0.11, 54.50, -32.47, 1.04, 41.33, 16.61, 26.39,
34.375248432159424,2.81, 0.43, 0.56, 46.51, 26.18, 34.30, 41.69, 15.89, 26.56,
34.48403000831604,1.24, 0.11, 0.37, 126.34, -29.17, 36.13, 40.60, 9.22, 29.37,
34.59263873100281,-0.47, -0.12, -0.02, 14.59, -108.28, -10.74, 40.73, 5.21, 28.65,
34.70327377319336,0.87, -0.08, 0.71, -37.29, -10.80, -9.58, 41.28, 6.52, 28.86,
34.81340527534485,2.47, -0.17, 0.77, -132.14, 10.19, -18.74, 40.34, 10.77, 30.74,
34.92275404930115,0.42, 0.42, -0.10, -89.66, 75.56, -5.13, 40.84, 15.26, 29.17,
35.03201746940613,-0.01, 0.14, -0.13, 34.85, -27.53, 5.49, 41.05, 16.19, 27.21,
35.14185333251953,2.04, 0.47, 0.91, 26.73, 80.93, -11.05, 41.13, 14.54, 28.48,
35.2517774105072,0.95, -0.12, 0.32, 97.60, -18.68, 53.59, 40.84, 8.61, 28.53,
35.36097550392151,-0.38, -0.02, -0.16, 10.07, -106.87, -31.31, 40.16, 6.47, 29.17,
35.47039723396301,1.09, 0.17, 1.16, -36.01, 63.35, -19.84, 42.07, 8.24, 26.81,
35.58120846748352,2.09, -0.02, 0.60, -116.76, -0.79, -23.56, 40.83, 13.05, 30.70,
35.69081377983093,-0.07, 0.23, -0.05, -71.04, 65.98, 6.77, 41.21, 15.44, 28.16,
35.802978515625,0.23, 0.06, -0.16, 86.00, -46.20, 10.56, 40.72, 14.60, 27.05,
35.91277885437012,2.63, 1.01, 0.76, 81.67, 21.85, 0.92, 40.61, 11.60, 31.79,
36.023327112197876,0.49, -0.25, 0.13, 74.34, 2.56, 35.34, 40.09, 5.66, 29.08,
36.13388228416443,-0.25, -0.39, -0.12, 5.31, -51.57, -36.44, 40.11, 4.88, 27.37,
36.244585037231445,2.14, 0.16, 0.75, -82.52, 44.98, -55.48, 41.64, 7.51, 27.55,
36.35395932197571,1.44, 0.02, 0.47, -107.30, -38.76, -6.29, 41.65, 13.42, 29.13,
36.46381616592407,-0.34, -0.04, -0.01, 13.55, -34.36, -15.44, 41.66, 14.47, 27.56,
36.57458853721619,0.66, 0.01, 0.10, -7.20, 20.75, 30.76, 41.43, 14.43, 26.18,
36.68572211265564,2.33, 0.55, 0.62, 75.44, 34.61, 15.08, 40.98, 11.50, 28.99,
36.79439830780029,-0.11, -0.35, 0.11, 19.41, 45.35, -0.92, 39.94, 7.31, 28.61,
36.90485334396362,0.08, -0.09, -0.00, 4.33, -75.62, -36.80, 41.30, 8.42, 25.94,
37.01519989967346,2.40, 0.04, 0.91, -102.54, 20.20, -35.64, 41.61, 11.84, 27.31,
37.124380111694336,1.47, 0.30, 0.29, -63.66, -37.29, -6.65, 41.32, 16.50, 28.74,
37.23430037498474,-0.40, 0.04, -0.26, 65.06, -27.77, -2.81, 40.11, 17.65, 28.02,
37.34373331069946,2.73, 1.28, 1.09, -159.73, 108.58, 35.34, 41.74, 16.49, 25.76,
37.4537308216095,1.68, 0.30, 0.47, 93.99, 18.74, 47.18, 40.75, 13.44, 28.14,
37.56372284889221,-0.15, 0.00, -0.07, 33.75, -21.12, 22.34, 39.60, 7.47, 29.75,
37.67425775527954,0.48, -0.04, -0.05, -46.26, -28.87, -61.40, 40.28, 8.20, 28.08,
37.783994913101196,2.52, -0.26, 0.81, -94.60, 13.92, -2.01, 41.20, 13.81, 30.51,
37.894073247909546,0.48, 0.37, 0.10, -70.62, 12.76, -17.82, 40.95, 16.89, 29.35,
38.003714084625244,-0.28, 0.13, -0.18, -2.87, -6.04, -1.46, 40.11, 19.03, 29.19,
38.11381244659424,1.89, -0.25, 0.63, 44.19, 33.87, 51.21, 40.70, 16.94, 29.37,
38.22524619102478,1.07, 0.03, 0.31, 113.65, -3.85, 69.64, 40.38, 12.35, 31.35,
38.33356952667236,-0.24, -0.08, -0.23, 24.66, -12.45, 11.60, 39.78, 5.83, 29.58,
38.44373822212219,2.61, -0.31, 0.78, -6.71, 32.47, -51.21, 41.37, 6.46, 27.95,
38.55269527435303,1.87, -0.16, 0.57, -108.03, -23.50, -37.11, 41.26, 10.55, 29.99,
38.66312003135681,-0.34, 0.28, -0.11, -28.02, 21.30, 4.58, 40.95, 15.95, 27.65,
38.772379875183105,0.00, 0.26, -0.08, 23.74, -6.65, 23.01, 41.32, 13.81, 27.51,
38.882915019989014,2.41, 0.53, 0.81, 40.89, 35.58, 2.50, 41.32, 11.90, 29.52,
38.99211072921753,0.47, -0.37, 0.20, 49.68, 75.99, 56.95, 40.48, 8.72, 31.15,
39.101274728775024,-0.01, -0.25, -0.16, 5.62, -25.76, -28.02, 38.90, 5.90, 30.32,
39.21186327934265,1.79, 0.16, 0.62, -46.75, 2.75, -42.54, 41.65, 10.12, 29.88,
39.321855545043945,1.47, 0.08, 0.43, -94.36, -25.02, -31.92, 40.52, 15.43, 30.68,
39.4319269657135,-0.26, 0.09, -0.33, 18.80, 22.03, 6.35, 39.67, 19.14, 29.33,
39.54107928276062,0.69, 0.15, 0.10, 31.80, -45.04, 24.66, 40.89, 16.85, 27.81,
39.65021848678589,2.30, 1.12, 0.79, 88.32, 29.42, -4.76, 40.75, 14.83, 29.99,
39.75977683067322,-0.01, -0.19, -0.06, 59.81, -7.08, 36.01, 39.77, 6.77, 30.37,
39.86965560913086,0.07, -0.23, -0.04, -2.20, -15.69, -37.11, 40.27, 5.57, 28.76,
39.98077130317688,2.12, -0.18, 0.78, -68.73, 27.65, -40.28, 41.36, 10.10, 30.27,
40.09113788604736,1.08, 0.14, 0.37, -90.21, 8.18, -25.27, 40.94, 18.55, 29.57,
40.20012426376343,-0.30, 0.11, -0.29, 11.29, 18.98, 23.01, 39.87, 17.44, 30.68,
40.309409856796265,2.04, 0.28, 1.79, -16.05, 20.69, 41.50, 40.38, 15.93, 31.14,
40.41990113258362,1.83, 0.53, 0.41, 117.86, 20.39, 12.45, 40.30, 11.71, 32.50,
40.52922701835632,-0.06, -0.13, -0.09, 62.19, -17.15, 3.97, 39.48, 7.21, 30.24,
40.640318632125854,0.16, -0.18, 0.24, -53.65, -78.19, -11.90, 39.44, 7.08, 29.33,
40.75015950202942,2.44, -0.34, 0.67, -93.26, 4.39, -4.88, 41.64, 12.81, 29.66,
40.85987043380737,0.46, 0.54, 0.06, -62.62, -16.72, -4.88, 41.78, 15.89, 26.81,
40.970128297805786,-0.34, 0.13, -0.16, 47.00, 2.81, 3.42, 41.47, 14.93, 25.59,
41.07888436317444,2.02, 0.54, 0.77, 36.50, 31.62, 32.41, 41.58, 12.92, 28.41,
41.187522172927856,1.11, 0.09, 0.35, 102.17, 6.47, 43.70, 40.48, 8.95, 28.78,
41.298187255859375,-0.22, -0.08, -0.26, 20.87, 18.74, -1.16, 39.65, 5.48, 27.83,
41.407649993896484,1.62, -0.07, 0.97, -96.01, -41.87, -29.97, 40.60, 5.98, 26.65,
41.5186505317688,2.14, -0.22, 0.55, -131.53, 7.32, -21.67, 41.61, 13.24, 30.29,
41.62891364097595,0.02, 0.39, -0.04, -34.30, -5.74, 6.35, 40.99, 15.50, 26.93,
41.740238666534424,-0.11, 0.10, -0.20, 36.25, -2.81, -0.12, 41.04, 15.48, 26.88,
41.850510120391846,2.76, 0.97, 0.74, 62.07, 32.35, -10.93, 41.15, 13.75, 29.50,
41.96109867095947,0.15, -0.41, 0.11, 57.50, -1.22, 18.92, 40.22, 7.91, 27.59,
42.0722553730011,-0.32, -0.18, -0.14, 9.89, -36.68, -29.05, 40.39, 7.43, 28.20,
42.182838678359985,2.77, 0.43, 0.78, -73.85, 22.64, -37.78, 41.75, 12.40, 29.37,
42.29268431663513,1.23, 0.21, 0.28, -104.86, -27.40, -28.14, 41.08, 16.00, 27.53,
42.402921199798584,-0.41, 0.05, -0.20, 43.58, -19.41, 3.78, 40.76, 16.69, 25.31,
42.511613845825195,0.79, 0.04, 0.47, 12.70, 36.38, 43.52, 40.87, 15.58, 25.22,
42.621607542037964,2.22, 0.47, 0.60, 111.45, 32.90, 11.90, 40.34, 13.29, 28.92,
42.73111081123352,0.08, -0.21, -0.23, 38.39, 42.11, -17.03, 39.55, 7.75, 28.74,
42.840461015701294,-0.21, -0.24, 0.00, 14.53, -45.90, -29.05, 40.70, 8.89, 27.23,
42.95133996009827,2.98, -0.39, 0.75, -80.99, 25.51, -15.87, 40.39, 12.17, 29.66,
43.06028199195862,0.62, 0.43, 0.06, -67.93, -45.23, -16.66, 40.37, 15.94, 26.95,
43.16946077346802,-0.40, 0.18, -0.19, 35.46, -11.47, -6.71, 40.45, 15.11, 25.67,
43.28004765510559,4.00, -0.05, -0.51, 8.97, -5.07, 74.16, 40.11, 14.78, 27.15,
43.389851093292236,1.34, 0.04, 0.38, 114.99, -12.27, 38.15, 39.81, 10.78, 30.47,
43.498451232910156,-0.27, -0.14, -0.23, -1.95, -7.02, -2.69, 38.95, 5.70, 27.60,
43.608487129211426,0.56, -0.22, 0.36, -99.73, -7.69, -29.91, 39.94, 9.59, 26.55,
43.71875047683716,2.34, -0.36, 0.76, -133.06, 17.94, -27.16, 40.32, 13.49, 29.16,
43.828365325927734,-0.34, 0.23, -0.22, -60.97, 8.79, 2.01, 40.11, 17.24, 26.12,
43.938915491104126,-0.25, 0.15, -0.12, 39.92, -4.82, 2.32, 39.45, 17.22, 24.85,
44.048717737197876,2.52, 0.48, 0.63, 94.67, 42.60, 7.02, 40.21, 15.14, 28.21,
44.15818548202515,0.83, -0.29, 0.07, 82.64, -2.99, 53.41, 39.45, 10.52, 29.15,
44.266313552856445,-0.32, -0.15, -0.18, 13.98, -36.13, -30.40, 39.55, 6.91, 27.44,
44.3763165473938,3.66, -0.81, 0.41, -46.02, 36.80, -54.20, 41.09, 11.08, 28.33,
44.48701810836792,1.50, 0.02, 0.32, -112.85, -35.03, -22.22, 41.02, 15.17, 29.05,
44.59660863876343,-0.48, 0.20, -0.20, -0.98, -15.01, 17.33, 40.06, 17.69, 26.29,
44.707186698913574,0.39, 0.07, 0.21, 24.90, 26.06, 43.95, 40.10, 15.95, 27.14,
44.8155415058136,2.31, 0.71, 0.61, 107.06, 51.64, 8.79, 39.58, 12.62, 28.78,
44.92501711845398,-0.04, -0.33, 0.06, 31.62, 80.63, 25.76, 39.29, 7.17, 29.08,
45.03506588935852,-0.19, -0.32, -0.07, -7.14, -57.98, -35.58, 40.06, 7.70, 26.75,
45.14524054527283,2.17, 0.21, 0.75, -79.90, 24.48, -59.02, 40.76, 12.26, 28.39,
45.254680156707764,0.96, 0.30, 0.13, -108.03, -14.83, -25.33, 39.97, 17.48, 29.20,
45.36507225036621,-0.47, 0.15, -0.28, 47.00, -11.54, 14.10, 39.36, 19.17, 30.37,
45.474645137786865,2.56, 0.67, 0.74, 78.37, 60.67, 38.21, 39.48, 17.47, 28.38,
45.58384370803833,1.89, 0.33, 0.23, 123.90, 19.53, 25.09, 39.11, 13.82, 32.13,
45.69262671470642,-0.05, -0.22, -0.13, 33.87, -21.48, 2.20, 38.39, 6.70, 30.57,
45.80223488807678,0.08, -0.15, 0.13, -41.93, -33.33, -21.61, 40.50, 8.85, 27.66,
45.91293430328369,2.58, -0.22, 0.71, -80.63, 20.39, -12.02, 41.03, 13.53, 28.54,
46.02270579338074,0.38, 0.46, 0.02, -54.02, -16.36, -14.34, 40.81, 16.38, 28.12,
46.1319260597229,-0.11, 0.27, -0.10, 64.21, -13.55, 22.09, 40.55, 15.84, 27.32,
46.24216151237488,3.54, -0.13, 0.57, -13.24, 24.17, 66.71, 40.78, 13.15, 27.86,
46.35210704803467,1.57, 0.24, 0.42, 107.73, -3.54, 20.75, 40.52, 8.68, 29.09,
46.463016986846924,-0.07, -0.13, -0.33, 11.78, -44.19, -9.89, 38.48, 3.86, 29.05,
46.5726318359375,0.55, -0.10, 0.35, -77.88, -37.41, -27.04, 41.53, 7.08, 27.28,
46.68291687965393,2.05, -0.43, 0.69, -138.31, 16.72, -25.15, 41.21, 11.69, 29.50,
46.793049812316895,0.11, 0.32, 0.00, -43.46, -4.82, -22.58, 41.15, 16.87, 27.45,
46.90227913856506,-0.29, 0.22, -0.21, 47.12, 8.79, 7.08, 40.81, 17.54, 27.38,
47.01303815841675,2.12, 0.27, 0.73, 71.66, -11.66, 28.20, 40.80, 15.48, 30.02,
47.12345838546753,1.03, -0.24, 0.14, 87.65, -17.82, 51.70, 40.26, 7.40, 30.37,
47.23423194885254,-0.29, -0.03, -0.30, 7.63, -36.87, -34.36, 39.67, 7.45, 27.12,
47.34412932395935,3.30, -0.57, 0.07, -40.10, 39.18, -66.16, 41.52, 9.94, 28.03,
47.45354413986206,1.58, 0.04, 0.43, -105.77, -7.02, -31.92, 41.39, 14.21, 29.81,
47.562705516815186,-0.23, 0.18, -0.18, -28.81, 49.01, 2.32, 40.98, 18.24, 27.97,
47.673707485198975,0.28, -0.05, 0.15, 21.61, 1.46, 34.18, 41.60, 16.44, 28.03,
47.7834746837616,2.43, 0.86, 0.56, 87.77, 32.29, -1.65, 41.20, 11.67, 30.63,
47.893266439437866,-0.09, -0.42, 0.02, 40.83, 37.60, 22.22, 40.38, 6.08, 30.27,
48.002952575683594,-0.26, -0.27, -0.15, 0.06, -40.95, -18.01, 40.26, 6.71, 27.23,
48.11308407783508,2.14, 0.54, 0.73, -84.59, -7.69, -39.25, 41.27, 10.97, 29.76,
48.22398805618286,1.10, 0.17, 0.29, -94.97, -46.14, -39.49, 41.52, 15.06, 29.77,
48.3347430229187,-0.41, 0.06, -0.26, 20.63, 2.87, 8.24, 41.65, 17.80, 26.05,
48.44532608985901,1.23, 0.57, 1.11, 32.84, 94.91, 37.29, 40.65, 16.37, 29.00,
48.554972887039185,2.08, 0.46, 0.49, 121.03, 19.35, 37.54, 40.69, 12.18, 30.74,
48.66459393501282,-0.23, -0.16, -0.18, 38.45, 72.08, -11.90, 40.38, 6.54, 29.35,
48.774619340896606,0.25, -0.15, 0.11, -45.35, -18.80, -23.25, 41.32, 7.23, 28.75,
48.88386106491089,2.78, -0.41, 0.75, -103.82, 13.12, -7.02, 41.88, 13.01, 30.21,
48.99413704872131,0.45, 0.27, 0.02, -57.56, -4.76, -8.12, 41.26, 16.59, 28.67,
49.10420608520508,-0.33, 0.18, -0.20, 36.50, 6.90, 10.01, 41.15, 17.35, 26.66,
49.21395778656006,3.48, -0.40, 1.03, 34.73, 21.12, 36.25, 41.25, 14.36, 29.87,
49.32229495048523,1.07, -0.14, 0.24, 93.63, -1.34, 38.27, 40.69, 10.07, 30.15,
49.43318819999695,-0.21, -0.09, -0.24, 7.32, 0.24, -25.51, 40.22, 7.15, 28.58,
49.54307174682617,1.14, -0.07, 0.99, -52.37, 69.52, -47.55, 42.03, 11.01, 27.26,
49.65282583236694,2.22, -0.11, 0.61, -99.61, -2.81, -18.13, 41.78, 14.65, 29.63,
49.76282215118408,-0.41, 0.29, 0.02, -33.87, 19.35, 18.43, 41.32, 17.22, 28.14,
49.872336864471436,0.02, 0.18, 0.05, 42.97, -20.20, 3.36, 41.63, 15.52, 27.33,
49.982911825180054,2.62, 0.97, 0.77, 89.72, 22.52, 2.62, 40.70, 13.11, 29.83,
50.092252016067505,0.27, -0.27, 0.03, 57.62, 11.17, 26.37, 40.23, 6.37, 29.43,
50.202584981918335,-0.34, -0.28, -0.11, 5.86, -28.81, -20.20, 39.75, 6.56, 28.21,
50.31317663192749,2.13, 0.52, 0.70, -84.11, -1.77, -23.38, 41.21, 10.73, 29.52,
50.42307257652283,1.03, 0.30, 0.21, -92.16, -35.89, -32.84, 41.16, 15.36, 30.48,
50.53317379951477,-0.54, 0.11, -0.30, 40.22, -26.92, 19.17, 41.11, 15.98, 27.66,
50.642606258392334,3.81, 0.20, 0.01, 62.01, 58.23, 32.90, 40.99, 14.14, 28.63,
50.75349259376526,1.61, 0.22, 0.41, 107.79, -9.40, 38.70, 40.61, 10.63, 29.63,
50.8631694316864,0.02, -0.08, -0.21, 26.43, 29.24, -14.34, 39.82, 6.85, 29.35,
50.97326135635376,0.25, -0.17, 0.30, -56.82, -12.88, -36.25, 41.10, 8.51, 28.30,
51.083091259002686,2.54, -0.54, 0.88, -99.00, 19.78, -17.52, 41.46, 13.93, 29.43,
51.19334602355957,0.38, 0.26, -0.01, -27.22, -9.89, 11.29, 41.64, 17.18, 28.09,
51.30404853820801,-0.28, 0.29, -0.14, 31.31, 0.92, 4.88, 41.20, 16.13, 28.04,
51.412678956985474,2.37, 0.60, 0.70, 53.10, 45.04, -5.07, 41.36, 14.54, 31.57,
51.52338266372681,0.91, -0.20, 0.20, 88.99, -17.03, 38.70, 40.60, 8.86, 31.07,
51.633466482162476,-0.41, -0.17, -0.06, 8.91, -34.12, -35.46, 39.75, 6.75, 29.27,
51.743019342422485,3.17, 0.44, 0.41, -58.17, 25.63, -51.82, 41.14, 10.95, 29.42,
51.8542275428772,1.38, 0.12, 0.38, -95.52, -33.14, -21.55, 41.20, 14.70, 31.14,
51.964332580566406,-0.50, 0.18, -0.04, 20.81, 21.55, 31.80, 40.64, 15.63, 28.33,
52.07465219497681,0.74, 0.10, 0.88, -15.93, 22.95, 50.66, 40.86, 13.09, 28.56,
52.18417549133301,2.21, 0.61, 0.68, 120.12, 35.83, 22.64, 39.70, 10.11, 29.81,
52.293572664260864,-0.27, -0.29, -0.03, 37.54, 62.56, -13.12, 40.10, 4.64, 28.63,
52.40399742126465,0.05, -0.31, -0.04, -33.87, -45.41, -35.28, 40.39, 6.15, 26.99,
52.51360082626343,2.70, -0.46, 0.82, -109.44, 15.75, -4.58, 41.48, 10.86, 27.86,
52.62287521362305,0.63, 0.43, 0.01, -59.33, -17.33, -17.52, 41.03, 16.74, 28.85,
52.73271298408508,-0.36, 0.18, -0.07, 37.48, -8.73, 19.23, 40.95, 15.05, 28.75,
52.84145951271057,3.60, 0.04, 0.20, -3.42, 20.87, 41.75, 40.15, 13.92, 28.99,
52.95135164260864,1.19, -0.01, 0.30, 108.89, -16.36, 34.42, 40.31, 9.84, 30.87,
53.061821699142456,-0.32, 0.02, -0.22, 2.01, -35.46, -12.51, 39.62, 6.04, 29.22,
53.170259952545166,0.54, -0.16, 0.82, -110.41, 2.99, -22.89, 41.13, 7.68, 27.21,
53.28043508529663,2.31, -0.29, 0.65, -117.07, 11.29, -16.60, 41.35, 12.22, 29.71,
53.39059519767761,-0.03, 0.36, -0.10, -28.81, 19.10, 27.40, 40.66, 16.27, 28.39,
53.50045156478882,-0.08, 0.20, -0.14, 47.67, -21.12, 15.75, 40.52, 13.79, 27.93,
53.610543966293335,2.99, 1.20, 0.56, 76.54, 36.87, -19.47, 40.15, 12.54, 30.73,
53.721195220947266,0.29, -0.38, 0.08, 54.57, 9.58, 20.87, 39.50, 6.48, 30.15,
53.83037710189819,-0.42, -0.31, -0.14, 14.28, -48.03, -33.45, 38.42, 5.71, 29.21,
53.94061827659607,2.16, 0.87, 0.84, -85.39, 16.42, -61.89, 39.94, 9.81, 29.74,
54.0509557723999,1.23, 0.14, 0.23, -102.48, -44.68, -13.61, 40.17, 15.93, 29.54,
54.16194558143616,-0.61, 0.15, -0.25, 29.85, 42.72, 25.51, 40.36, 15.89, 28.75,
54.27279043197632,1.49, 0.31, 0.84, 67.44, 64.21, 31.86, 39.95, 14.95, 30.04,
54.381656885147095,1.85, 0.23, 0.33, 128.91, -3.23, 46.26, 39.51, 11.08, 31.09,
54.49122214317322,-0.19, -0.07, -0.18, 35.77, 17.27, -6.96, 39.33, 4.69, 29.16,
54.60161900520325,0.11, -0.27, 0.04, -86.61, -7.69, -27.89, 40.14, 5.97, 28.34,
54.71026563644409,2.42, -0.49, 0.79, -96.56, 27.95, 7.69, 40.08, 11.61, 31.62,
54.8211624622345,0.32, 0.36, -0.16, -59.39, -25.57, -11.35, 40.10, 16.21, 29.14,
54.9313440322876,-0.32, 0.23, -0.16, 30.82, -4.52, 2.20, 40.65, 14.36, 29.30,
55.04100036621094,2.28, -0.11, 0.51, 14.04, 45.41, 5.31, 39.81, 13.35, 31.18,
55.14937686920166,1.11, -0.24, 0.25, 107.30, -16.85, 60.12, 39.88, 8.51, 31.37,
55.25944995880127,-0.11, -0.08, -0.25, 7.93, -26.12, -18.68, 39.07, 5.09, 29.03,
55.36974096298218,1.46, -0.21, 0.69, -37.96, 50.17, -55.54, 40.33, 6.62, 27.99,
55.479549407958984,2.27, -0.19, 0.69, -134.83, -4.52, -4.09, 39.93, 13.15, 31.84,
55.58841633796692,-0.11, 0.43, 0.00, -40.28, -11.29, 19.90, 40.87, 16.50, 27.42,
55.69858264923096,-0.13, 0.16, -0.11, 53.77, -1.89, -7.08, 40.89, 15.23, 28.30,
55.80875849723816,2.69, 0.83, 0.65, 98.75, 28.93, -9.77, 40.84, 13.71, 30.86,
55.91837406158447,0.19, -0.49, 0.11, 83.13, 0.67, 41.56, 40.31, 7.21, 30.35,
56.02779674530029,-0.47, -0.29, -0.16, 9.03, -33.87, -37.66, 39.66, 4.86, 29.43,
56.137465476989746,2.25, 0.57, 0.76, -73.49, 17.70, -45.78, 41.00, 11.02, 29.85,
56.24719190597534,1.00, 0.15, 0.27, -99.79, -37.90, -11.05, 40.89, 14.71, 29.16,
56.35687613487244,-0.29, 0.07, -0.38, 47.67, -7.45, 17.82, 40.17, 15.30, 29.48,
56.46740937232971,0.92, 0.38, 1.15, 0.73, 63.48, 62.07, 41.19, 12.51, 27.04,
56.57712435722351,2.01, 0.29, 0.38, 119.02, 26.55, 21.24, 40.30, 9.33, 32.60,
56.68666362762451,0.14, -0.19, -0.19, 28.14, 24.54, -0.61, 39.67, 4.33, 30.37,
56.79645848274231,0.19, -0.21, 0.20, -99.61, 12.21, -6.41, 40.54, 5.20, 28.14,
56.906952142715454,2.80, -0.42, 0.76, -109.99, 28.20, -24.72, 40.30, 13.31, 32.18,
57.01547169685364,0.89, 0.30, -0.02, -54.26, -21.36, -2.20, 40.66, 17.49, 29.05,
57.12616777420044,-0.42, 0.29, -0.07, 55.91, -27.47, 3.72, 40.08, 17.26, 29.76,
57.23576784133911,2.05, 0.00, 0.65, 44.01, 14.10, 36.50, 39.99, 14.48, 30.18,
57.34595227241516,0.89, -0.30, 0.25, 87.34, -15.20, 44.80, 40.10, 10.50, 31.16,
57.45494556427002,-0.32, -0.06, -0.25, -10.44, -46.02, -32.35, 39.79, 7.12, 29.49,
57.564271211624146,2.05, -0.51, 0.73, -42.48, 50.84, -54.75, 40.87, 12.98, 29.35,
57.67501616477966,1.91, -0.06, 0.53, -97.96, -28.14, -18.01, 41.08, 16.37, 28.19,
57.78329372406006,-0.31, 0.06, -0.03, -33.69, 21.67, 7.08, 41.37, 17.49, 26.50,
57.89313983917236,0.11, 0.04, -0.22, 51.03, -2.08, 1.16, 40.93, 16.82, 27.47,
58.00372314453125,2.43, 0.92, 0.65, 101.81, 27.47, 5.98, 41.30, 13.95, 29.77,
58.11490869522095,0.04, -0.43, 0.04, 46.94, 17.88, 22.34, 40.33, 7.57, 29.22,
58.223259925842285,-0.10, -0.30, -0.16, -16.48, -37.54, -31.43, 40.10, 6.69, 28.67,
58.33402609825134,2.60, -0.39, 0.74, -74.89, 10.56, -19.04, 41.42, 13.24, 31.48,
58.44374942779541,0.82, 0.23, 0.09, -66.96, -34.97, -15.63, 41.59, 15.97, 28.43,
58.553163290023804,-0.57, 0.16, -0.17, 33.14, -15.20, 18.37, 41.63, 15.34, 28.28,
58.66416311264038,4.00, -0.03, -0.50, 45.78, 18.37, 50.23, 40.86, 13.95, 29.64,
58.77333116531372,1.15, -0.17, 0.31, 100.65, -9.64, 37.66, 40.45, 10.36, 31.21,
58.8838324546814,-0.17, -0.11, -0.22, -13.49, -61.04, -36.87, 40.08, 6.02, 29.92,
58.993369579315186,1.14, -0.11, 0.58, -64.51, 56.88, -54.26, 41.47, 12.29, 29.63,
59.10233449935913,2.00, -0.04, 0.54, -98.69, -7.08, -18.98, 41.24, 16.81, 31.02,
59.21291184425354,0.27, 0.05, -0.07, -5.00, 1.34, 19.78, 41.54, 17.96, 27.44,
59.32134771347046,-0.13, 0.21, -0.18, 36.87, 11.54, 10.01, 41.83, 17.07, 27.87,
59.43124437332153,2.55, 0.98, 0.51, 102.29, 19.96, -0.55, 41.26, 14.73, 30.25,
59.5420823097229,0.24, -0.30, 0.11, 52.06, 12.21, 20.69, 41.14, 7.74, 29.68,
59.650503396987915,-0.40, -0.32, -0.10, 1.46, -23.19, -19.90, 40.30, 5.27, 28.55,
59.76036834716797,2.13, 0.30, 0.69, -89.11, -6.77, -24.11, 41.63, 11.88, 30.05,
59.87155771255493,0.74, 0.19, 0.17, -93.44, -44.62, -28.14, 42.02, 15.64, 27.56,
59.981204986572266,-0.62, 0.09, -0.23, 25.63, -28.75, 9.64, 41.48, 16.14, 25.98,
60.09316444396973,4.00, 0.18, -0.40, 2.69, -3.48, 64.15, 41.09, 15.67, 28.00,
60.20300602912903,1.26, 0.02, 0.25, 100.95, -1.16, 43.64, 41.33, 11.79, 30.36,
60.3122923374176,-0.22, -0.01, -0.17, 13.67, -46.02, -16.05, 40.65, 6.51, 29.81,
60.42295455932617,0.98, -0.11, 0.87, -87.46, 50.17, -52.98, 41.98, 10.85, 28.10,
60.533175468444824,2.08, -0.24, 0.60, -112.12, -6.65, -26.00, 42.42, 15.06, 29.60,
60.642722368240356,-0.32, 0.31, -0.13, -47.55, 19.84, -0.37, 41.46, 18.13, 28.11,
60.7521870136261,0.07, 0.15, -0.25, 25.15, -7.93, 15.63, 41.71, 17.07, 27.72,
60.861944913864136,2.52, 0.97, 0.62, 125.85, 25.02, 17.82, 40.61, 13.29, 30.73,
60.971123933792114,0.25, -0.29, 0.07, 44.80, 11.29, 12.45, 40.45, 7.12, 29.66,
61.081135988235474,-0.24, -0.27, -0.12, -16.30, -42.05, -32.04, 40.99, 7.68, 27.56,
61.191314697265625,2.12, 0.08, 0.88, -79.04, 20.51, -14.77, 41.65, 13.22, 30.40,
61.301331520080566,0.88, 0.17, 0.06, -73.61, -20.20, -3.42, 41.27, 16.89, 29.98,
61.41145968437195,-0.40, 0.13, -0.18, 4.03, 17.58, -0.31, 40.47, 16.87, 30.51,
61.52147579193115,2.13, 0.54, 0.31, 60.61, 61.40, 22.28, 40.19, 15.92, 30.70,
61.63078761100769,1.87, 0.22, 0.28, 135.25, 8.91, 32.65, 40.01, 11.46, 33.13,
61.740076303482056,-0.19, -0.02, -0.21, 33.39, -11.96, 8.79, 39.49, 4.66, 31.37,
61.849162101745605,0.42, -0.21, 0.37, -82.21, -7.45, -28.44, 39.95, 5.79, 28.05,
61.960042238235474,2.36, -0.53, 0.83, -108.83, 9.34, -25.09, 40.64, 10.85, 32.06,
62.06923294067383,0.10, 0.35, -0.09, -52.55, -38.76, -14.04, 41.49, 15.16, 28.26,
62.179670333862305,-0.32, 0.29, -0.05, 29.54, -19.53, -6.47, 41.42, 14.70, 27.60,
62.2896523475647,2.13, 0.52, 0.66, 73.24, 29.42, -3.91, 40.91, 13.07, 30.20,
62.401161432266235,0.83, -0.34, 0.15, 99.73, -16.60, 33.69, 40.76, 8.56, 29.77,
62.510305881500244,-0.32, -0.16, -0.20, 23.01, -27.89, -30.33, 40.15, 5.73, 28.96,
62.620763063430786,2.84, -0.68, 0.63, -67.57, 38.09, -52.80, 41.27, 9.24, 28.25,
62.73215436935425,1.99, -0.01, 0.44, -111.94, -31.62, -26.55, 40.94, 13.93, 29.74,
62.84185552597046,-0.23, 0.23, -0.14, -30.88, -6.96, 23.62, 41.83, 15.72, 27.34,
62.95115351676941,0.25, 0.07, 0.17, 50.05, -2.87, 29.36, 41.30, 14.43, 27.89,
63.060314655303955,2.42, 1.11, 0.67, 115.42, 28.32, 7.39, 41.25, 11.00, 30.69,
63.1706178188324,0.50, -0.36, 0.00, 52.86, 13.79, 14.89, 40.14, 2.82, 27.69,
63.279484272003174,-0.30, -0.30, -0.17, -14.47, -45.59, -26.18, 40.53, 3.88, 27.25,
63.390214681625366,2.16, 0.03, 0.86, -92.10, 16.60, -39.49, 41.60, 9.06, 28.33,
63.49944567680359,0.94, 0.12, 0.25, -116.27, -36.74, -27.34, 41.99, 14.36, 28.14,
63.610124588012695,-0.31, 0.24, -0.20, 3.17, -15.93, 9.83, 40.94, 16.77, 28.52,
63.720130920410156,1.61, 0.59, 1.04, -7.87, 56.27, 41.02, 41.14, 15.81, 29.25,
63.829832315444946,2.04, 0.45, 0.39, 139.77, 17.64, 46.69, 40.76, 13.01, 30.54,
63.93898320198059,-0.00, -0.12, -0.18, 65.61, 57.74, -16.05, 39.23, 4.37, 31.36,
64.04775810241699,0.05, -0.28, 0.14, -5.68, -54.08, -16.66, 40.61, 3.83, 29.41,
64.15762734413147,2.90, -0.39, 0.73, -108.76, 7.08, -27.59, 41.67, 9.52, 29.54,
64.26717615127563,0.45, 0.33, -0.04, -98.69, -33.33, -24.96, 41.74, 15.81, 27.43,
64.3772234916687,-0.42, 0.33, -0.06, 20.39, -5.98, -3.78, 41.94, 16.13, 26.92,
64.48806023597717,4.00, 0.25, -0.41, 3.66, 19.04, 71.29, 41.64, 16.38, 26.35,
64.59704494476318,1.30, 0.16, 0.30, 129.15, -4.70, 15.32, 41.28, 8.41, 30.19,
64.70699501037598,-0.20, -0.08, -0.15, 6.29, -6.23, 0.85, 40.45, 5.36, 28.66,
64.81553649902344,0.54, -0.14, 0.76, -83.98, 24.72, -24.54, 42.27, 7.58, 27.01,
64.9255895614624,2.38, -0.41, 0.75, -116.58, -3.97, -39.12, 42.53, 11.71, 30.33,
65.03522610664368,-0.17, 0.30, 0.08, -66.35, 11.72, 5.13, 42.15, 16.72, 27.01,
65.14593815803528,-0.11, 0.28, -0.24, 24.17, 18.19, -3.11, 42.43, 16.60, 26.18,
65.2565975189209,2.55, 0.81, 0.66, 95.15, 13.67, 7.45, 42.08, 12.89, 30.33,
65.36666941642761,0.57, -0.29, 0.05, 82.34, -10.25, 31.68, 41.10, 6.10, 29.15,
65.47709250450134,-0.41, -0.22, -0.25, 14.53, -13.12, -19.59, 40.03, 5.07, 28.20,
65.58775615692139,2.94, 0.13, 0.68, -42.91, 34.91, -41.56, 42.24, 7.75, 28.61,
65.69708609580994,1.70, 0.00, 0.37, -111.45, -49.56, -29.72, 41.86, 12.01, 31.36,
65.80586862564087,-0.49, 0.22, -0.24, 21.67, -42.66, 2.93, 41.88, 15.08, 27.73,
65.91767978668213,0.92, 0.15, 0.56, 0.06, 26.31, 40.47, 41.52, 15.14, 26.98,
66.02625823020935,2.25, 0.62, 0.50, 126.89, 36.99, 24.54, 40.28, 10.99, 31.32,
66.13533735275269,0.03, -0.24, -0.10, 44.25, 0.73, 5.68, 40.50, 5.05, 29.48,
66.24525952339172,-0.20, -0.30, -0.03, -4.88, -60.73, -31.19, 41.19, 5.48, 27.87,
66.35468220710754,2.70, -0.24, 0.80, -81.85, -5.49, -21.61, 42.68, 10.90, 28.69,
66.46531558036804,0.71, 0.31, 0.17, -90.33, -42.91, -26.49, 42.47, 15.67, 26.09,
66.57499885559082,-0.55, 0.24, -0.18, 18.68, -28.75, 3.78, 41.76, 17.53, 26.07,
66.68469047546387,3.99, 0.44, -0.27, 18.62, 47.91, 19.53, 41.76, 15.80, 28.42,
66.79379630088806,1.43, 0.15, 0.36, 132.57, -6.04, 30.58, 41.49, 10.40, 28.97,
66.90266299247742,-0.24, -0.10, -0.16, 19.10, 12.02, 3.36, 41.00, 5.98, 27.98,
67.0140860080719,0.59, -0.18, 0.63, -59.27, 13.18, -20.45, 42.25, 7.40, 28.50,
67.12491345405579,2.27, -0.50, 0.68, -123.66, 5.43, -36.62, 41.96, 12.83, 30.59,
67.23519325256348,-0.18, 0.22, -0.21, -61.65, 44.92, -3.23, 41.28, 17.40, 29.85,
67.34588885307312,-0.13, 0.29, -0.16, 56.70, -13.98, 6.10, 42.04, 15.55, 28.39,
67.45551800727844,2.66, 1.02, 0.66, 106.08, 19.96, 5.74, 41.05, 13.05, 29.92,
67.56586599349976,0.56, -0.21, 0.08, 88.75, -1.34, 34.30, 40.48, 5.18, 30.18,
67.67596054077148,-0.53, -0.26, -0.27, 4.70, -37.17, -32.41, 39.77, 4.02, 29.37,
67.78567862510681,2.73, 0.65, 0.48, -86.43, 5.68, -50.29, 41.91, 7.07, 28.48,
67.89606237411499,1.34, 0.13, 0.19, -129.58, -42.11, -41.56, 42.22, 13.65, 30.13,
68.00576066970825,-0.37, 0.09, -0.38, 6.04, 18.86, 2.32, 41.32, 18.30, 28.03,
68.11420273780823,0.24, -0.05, 0.11, 44.74, -1.16, 35.16, 42.08, 16.27, 29.50,
68.22487473487854,2.29, 0.91, 0.63, 110.17, 37.54, 34.18, 41.05, 12.24, 31.92,
68.33351993560791,0.09, -0.30, -0.00, 62.26, 42.97, 29.60, 40.11, 4.41, 30.02,
68.44338870048523,-0.30, -0.37, -0.04, 2.50, -42.24, -37.60, 40.04, 2.81, 29.66,
68.55326342582703,2.31, 0.58, 0.58, -86.98, -9.77, -59.51, 42.44, 7.25, 31.68,
68.66290307044983,1.03, 0.16, 0.28, -117.80, -27.28, -36.19, 41.64, 14.56, 30.37,
68.77222228050232,-0.56, 0.14, -0.35, 46.33, -20.69, 27.53, 41.49, 18.08, 28.76,
68.88236594200134,3.55, 0.33, 0.42, 88.32, 67.69, 40.41, 41.81, 16.03, 29.10,
68.99237561225891,1.64, 0.19, 0.37, 114.44, 3.78, 47.73, 41.63, 10.78, 31.70,
69.10251760482788,-0.01, -0.14, -0.20, 13.06, 17.09, -21.61, 40.52, 5.63, 30.43,
69.21276879310608,0.37, -0.17, 0.43, -81.05, -66.89, -27.47, 41.67, 7.80, 29.19,
69.32243037223816,2.42, -0.34, 0.73, -127.14, 14.47, -18.86, 41.88, 14.37, 31.38,
69.43308472633362,-0.00, 0.35, 0.08, -33.39, 4.70, -1.16, 41.97, 19.38, 28.31,
69.5430109500885,-0.32, 0.19, -0.11, 47.67, -14.22, 15.63, 42.33, 18.97, 29.11,
69.65196633338928,2.19, 0.37, 0.70, 94.54, 11.35, 44.19, 42.14, 14.73, 29.86,
69.76283645629883,0.89, -0.10, 0.16, 86.43, -1.59, 39.31, 41.61, 8.87, 30.29,
69.87293744087219,-0.35, -0.12, -0.29, 0.49, 0.12, -31.25, 40.94, 6.23, 29.35,
69.98285174369812,3.62, -1.02, 0.17, -55.11, 23.01, -57.68, 41.86, 9.58, 29.19,
70.09285712242126,1.78, -0.01, 0.48, -130.55, -8.12, -40.65, 42.02, 15.06, 30.79,
70.20259070396423,-0.04, 0.34, -0.09, -14.59, -16.78, 0.12, 41.99, 21.00, 27.31,
70.31229090690613,0.17, 0.09, -0.01, 29.11, 17.94, 28.81, 42.11, 20.01, 26.40,
70.42224049568176,2.27, 0.71, 0.62, 117.00, 44.98, 36.62, 42.37, 14.72, 29.70,
70.53151273727417,0.26, -0.28, -0.03, 80.08, 44.01, 33.81, 41.25, 6.58, 29.99,
70.64003849029541,-0.32, -0.34, -0.18, 7.57, -26.98, -29.24, 40.80, 4.22, 31.37,
70.75072765350342,2.18, 0.42, 0.61, -98.45, 22.22, -39.67, 41.66, 8.31, 31.21,
70.85944151878357,1.13, 0.23, 0.24, -115.48, -9.83, -24.23, 41.66, 17.52, 31.26,
70.97047138214111,-0.16, 0.11, -0.29, 15.56, -40.83, 14.04, 40.69, 18.62, 30.93,
71.08040118217468,1.60, 0.70, 0.73, 66.65, 48.58, 41.26, 42.11, 17.58, 30.15,
71.18914198875427,1.91, 0.39, 0.39, 143.25, 20.81, 33.33, 41.89, 11.24, 31.32,
71.29880785942078,-0.16, -0.35, -0.10, 50.17, 63.23, 0.12, 40.41, 4.64, 30.81,
71.40766668319702,0.30, -0.26, 0.05, -54.50, -29.54, -20.39, 41.14, 4.81, 30.52,
71.5177218914032,2.81, -0.47, 0.60, -118.77, 2.69, -24.78, 42.50, 10.05, 31.12,
71.6268081665039,0.61, 0.31, 0.00, -98.21, -23.62, -15.75, 41.98, 18.47, 29.54,
71.73610854148865,-0.37, 0.24, -0.12, 24.66, -22.52, 11.90, 42.27, 18.21, 28.30,
71.84632229804993,3.96, 0.43, -0.46, 38.09, 11.11, 57.98, 42.66, 16.28, 30.66,
71.95526146888733,1.30, -0.13, 0.23, 131.35, -6.16, 40.04, 41.41, 10.25, 31.48,
72.06448459625244,-0.25, -0.04, -0.11, 24.78, -8.79, 3.11, 40.23, 4.80, 31.05,
72.17509412765503,0.33, -0.13, 0.24, -67.87, -6.53, -39.25, 42.25, 5.98, 28.19,
72.28566575050354,2.31, -0.41, 0.67, -113.83, 2.87, -25.45, 43.48, 11.10, 30.48,
72.39596629142761,0.12, 0.32, 0.02, -61.16, 15.75, -5.49, 42.91, 16.80, 29.46,
72.50578761100769,-0.20, 0.10, -0.00, 19.17, -7.87, 8.79, 42.44, 16.21, 27.08,
72.61532378196716,2.21, 0.19, 0.66, 90.39, 22.64, 19.04, 42.36, 13.95, 29.69,
72.72423601150513,0.84, -0.19, 0.09, 97.84, -4.76, 36.62, 41.43, 8.54, 30.87,
72.83336591720581,-0.28, -0.06, -0.25, 6.96, -17.21, -31.98, 40.20, 5.11, 30.13,
72.94374227523804,0.59, -0.03, 0.75, -73.55, 34.79, -27.59, 42.58, 7.65, 27.62,
73.05380773544312,2.34, -0.20, 0.68, -110.72, 13.79, -22.95, 41.97, 14.99, 31.25,
73.16266393661499,-0.05, 0.16, -0.07, -33.14, 2.44, 4.46, 42.05, 16.77, 29.21,
73.27285385131836,-0.33, 0.27, -0.26, 78.19, -18.07, 9.34, 41.70, 16.13, 27.00,
73.3830680847168,2.03, 0.41, 0.78, 100.77, 26.86, 1.71, 41.33, 13.17, 30.46,
73.49323868751526,0.81, -0.29, 0.19, 83.56, -6.65, 28.08, 40.81, 7.59, 30.65,
73.603031873703,-0.29, -0.18, -0.22, -7.51, -31.98, -18.49, 40.71, 5.33, 29.37,
73.71353197097778,2.09, -0.66, 0.70, -48.22, 21.48, -49.74, 41.61, 10.62, 29.70,
73.82323789596558,1.73, 0.08, 0.44, -116.39, -27.83, -27.34, 41.72, 15.65, 29.71,
73.93373107910156,-0.45, 0.21, 0.02, -32.78, 32.65, 6.04, 42.09, 16.87, 26.71,
74.04299807548523,0.05, 0.05, -0.14, 25.45, 2.38, 24.66, 42.37, 15.15, 27.50,
74.15250611305237,2.49, 0.90, 0.66, 93.38, 22.64, 18.31, 41.85, 13.12, 30.04,
74.26166653633118,-0.29, -0.33, 0.13, 55.05, -4.27, 20.57, 41.00, 6.18, 28.83,
74.37172794342041,-0.47, -0.28, -0.23, 9.95, -42.91, -24.48, 40.56, 5.05, 29.13,
74.48105835914612,2.04, 0.69, 0.83, -75.74, 16.17, -38.57, 41.59, 10.36, 30.21,
74.5903377532959,1.17, 0.19, 0.25, -96.07, -38.88, -10.50, 41.99, 14.38, 28.64,
74.70037508010864,-0.50, 0.07, -0.18, 36.44, -52.61, 4.94, 41.96, 14.61, 26.39,
74.81062865257263,0.70, 0.34, 1.25, 25.39, 86.43, 32.96, 42.29, 14.81, 27.09,
74.91985702514648,2.17, 0.28, 0.43, 119.14, 21.00, 32.47, 41.47, 12.08, 29.70,
75.03002214431763,0.11, -0.19, -0.15, 34.06, 2.32, -3.36, 41.64, 5.97, 28.36,
75.14045262336731,-0.24, -0.31, -0.06, -30.52, -44.56, -21.06, 42.38, 7.52, 27.33,
75.25093507766724,2.77, -0.29, 0.81, -112.37, 23.25, -26.12, 41.19, 11.90, 30.16,
75.36102175712585,0.64, 0.33, 0.04, -59.63, -39.67, -2.26, 42.07, 15.84, 27.92,
75.47176909446716,-0.55, 0.24, -0.12, 60.00, -34.18, -10.38, 41.99, 14.67, 27.83,
75.5818738937378,3.96, 0.04, -0.37, 11.47, 13.37, 47.36, 41.44, 14.10, 28.64,
75.69088649749756,1.33, -0.11, 0.30, 118.35, -8.18, 36.19, 40.94, 9.56, 29.74,
75.80071425437927,-0.21, -0.10, -0.13, 22.95, -31.49, 3.66, 40.55, 4.83, 28.94,
75.9104700088501,0.44, -0.07, 0.76, -113.46, 32.23, -27.22, 41.52, 7.52, 29.75,
76.02021193504333,2.21, -0.34, 0.67, -114.07, -0.98, -21.24, 41.82, 12.16, 30.68,
76.13092994689941,0.07, 0.20, -0.07, -31.01, -21.85, 15.75, 41.59, 15.14, 29.00,
76.23960852622986,-0.33, 0.19, -0.23, 32.53, 26.79, -5.43, 41.86, 14.73, 28.60,
76.34995293617249,2.50, 0.85, 0.69, 62.32, 15.32, -5.86, 41.88, 13.93, 30.73,
76.45959210395813,0.36, -0.31, 0.11, 79.22, -26.61, 31.92, 41.58, 9.40, 31.08,
76.57074880599976,-0.55, -0.18, -0.21, -7.63, -10.01, -30.82, 41.78, 7.01, 28.30,
76.6809139251709,3.81, 0.27, 0.24, -61.40, 14.53, -41.08, 42.31, 11.45, 29.60,
76.7894401550293,1.49, 0.17, 0.28, -103.03, -29.54, -14.10, 42.14, 15.05, 29.49,
76.899165391922,-0.51, 0.04, -0.20, 11.54, 1.89, 7.57, 42.07, 15.23, 27.72,
77.00952434539795,0.61, -0.03, 0.09, -11.96, 32.53, 30.21, 42.16, 14.69, 28.00,
77.11851167678833,2.23, 0.76, 0.50, 118.71, 28.63, 24.05, 41.14, 13.17, 31.70,
77.22825193405151,-0.25, -0.20, -0.03, 42.54, 5.37, 12.76, 40.33, 6.56, 31.02,
77.33815360069275,-0.28, -0.30, -0.00, 1.46, -30.64, -22.58, 40.12, 5.10, 28.50,
77.44873690605164,2.33, -0.08, 0.72, -94.91, 0.31, -18.92, 41.61, 9.62, 30.70,
77.55892395973206,0.84, 0.18, 0.12, -94.54, -38.94, -13.79, 41.69, 13.82, 29.10,
77.66880345344543,-0.63, 0.18, -0.05, 5.98, -25.51, 6.71, 42.63, 14.29, 28.09,
77.77753186225891,3.59, 0.74, 0.60, 33.81, 38.82, 33.69, 42.09, 14.95, 27.44,
77.8871591091156,1.25, -0.03, 0.27, 118.96, -2.75, 28.08, 41.52, 11.06, 31.95,
77.99761486053467,-0.05, -0.07, -0.35, 20.87, -20.57, -0.55, 40.71, 5.14, 29.37,
78.10795760154724,0.26, -0.16, 0.77, -99.61, 37.11, -41.69, 41.32, 9.06, 28.30,
78.21803951263428,2.33, -0.35, 0.73, -106.45, 15.32, -22.89, 41.31, 13.56, 31.57,
78.32699346542358,0.15, 0.25, 0.05, -27.89, -14.34, 17.94, 41.85, 16.09, 29.60,
78.43675994873047,-0.41, 0.30, -0.19, 72.02, -6.04, -2.69, 41.08, 14.51, 30.11,
78.54659414291382,2.90, 0.90, 0.47, 90.21, -0.73, 8.54, 40.69, 12.84, 31.49,
78.65601968765259,0.66, -0.22, 0.13, 87.95, -12.21, 21.61, 40.70, 7.90, 31.49,
78.76537585258484,-0.33, -0.15, -0.16, 3.05, -18.55, -25.70, 40.27, 4.41, 29.30,
78.87555003166199,2.58, -0.66, 0.29, -46.94, 20.75, -48.34, 41.37, 9.09, 29.19,
78.9844536781311,1.49, 0.15, 0.37, -113.53, -26.18, -31.19, 41.85, 13.13, 30.47,
79.09480500221252,-0.26, 0.15, -0.22, -9.95, -8.24, 13.67, 41.86, 15.34, 27.99,
79.20494484901428,0.41, 0.07, 0.31, 5.92, 11.23, 24.72, 42.40, 14.20, 26.86,
79.31421709060669,2.22, 0.52, 0.60, 112.85, 21.42, 38.27, 41.20, 13.13, 30.25,
79.42468309402466,-0.14, -0.33, 0.02, 43.27, 56.88, 15.56, 40.60, 4.52, 29.33,
79.53571796417236,0.03, -0.35, -0.08, -15.44, -48.46, -27.22, 41.33, 5.74, 27.81,
79.64589428901672,2.55, -0.10, 0.79, -116.15, 27.40, -9.09, 41.93, 11.05, 30.19,
79.75590324401855,0.51, 0.31, -0.00, -81.60, -18.01, -7.14, 41.28, 15.53, 30.14,
79.8658709526062,-0.52, 0.17, -0.13, 49.68, -22.83, 1.10, 40.53, 15.53, 29.93,
79.9756019115448,3.80, 0.16, -0.38, 48.10, 1.71, 41.75, 41.33, 15.58, 28.89,
80.08519411087036,1.25, -0.24, 0.26, 113.46, -12.63, 31.07, 39.93, 7.71, 31.64,
80.19687604904175,-0.13, -0.11, -0.19, 14.40, -49.19, -0.12, 40.38, 5.21, 29.81,
80.30632281303406,1.53, -0.35, 0.43, -63.48, 49.50, -50.05, 40.39, 8.48, 29.55,
80.4163031578064,2.30, -0.11, 0.57, -117.68, -18.55, -33.20, 41.30, 13.92, 31.18,
80.52612900733948,-0.10, 0.25, 0.04, -35.16, 23.07, 21.61, 41.16, 17.63, 28.25,
80.63654136657715,-0.09, 0.15, -0.10, 70.01, -30.58, 5.19, 40.86, 17.33, 28.69,
80.74522709846497,2.62, 1.02, 0.74, 117.74, 21.48, 10.31, 40.80, 14.95, 29.59,
80.85408639907837,0.25, -0.44, 0.01, 84.17, -6.04, 28.26, 40.77, 6.10, 27.70,
80.9627013206482,-0.39, -0.38, -0.08, 5.80, -28.02, -20.63, 40.72, 5.81, 27.81,
81.07375931739807,2.59, 0.54, 0.85, -102.60, 21.55, -36.56, 40.97, 10.90, 29.39,
81.18343353271484,0.99, 0.25, 0.14, -96.44, -15.38, -23.07, 40.64, 15.10, 29.48,
81.29220843315125,-0.40, 0.21, -0.17, -2.56, 16.54, 6.04, 40.92, 15.86, 28.59,
81.40177035331726,1.20, 0.67, 1.08, 83.19, 76.42, 28.75, 41.38, 14.07, 27.94,
81.51036930084229,1.78, 0.19, 0.37, 140.69, 0.31, 34.48, 40.41, 7.56, 30.75,
81.61977052688599,-0.30, -0.15, -0.03, 33.26, -1.28, 10.80, 39.27, 3.53, 29.03,
81.72841954231262,0.27, -0.27, 0.19, -59.63, -30.21, -22.83, 40.83, 4.99, 26.82,
81.83871579170227,2.62, -0.46, 0.91, -122.31, 23.74, -21.79, 40.64, 9.89, 29.21,
81.94735598564148,0.40, 0.41, -0.06, -75.87, -16.78, -2.08, 40.10, 15.58, 28.53,
82.05747890472412,-0.47, 0.22, -0.18, 35.46, -13.85, -7.32, 40.67, 15.39, 29.06,
82.16648602485657,2.49, -0.17, 0.64, 37.41, 40.89, 31.01, 40.56, 14.78, 29.04,
82.27484607696533,1.02, -0.14, 0.24, 100.52, -14.65, 46.26, 39.89, 6.53, 29.80,
82.38438034057617,-0.02, -0.09, -0.24, 8.67, -23.01, -9.89, 39.18, 4.53, 30.10,
82.49290800094604,1.57, -0.48, 0.59, -103.21, 50.90, -65.49, 40.15, 9.48, 29.90,
82.60296154022217,1.99, -0.19, 0.44, -132.63, -28.50, -17.88, 40.65, 15.17, 30.80,
82.71176362037659,-0.22, 0.23, -0.01, -31.07, 12.33, 24.78, 40.56, 18.49, 28.99,
82.82084393501282,-0.03, 0.22, -0.24, 60.97, -14.77, 0.37, 40.23, 17.13, 29.38,
82.92959070205688,2.81, 1.15, 0.76, 102.11, 24.23, 5.86, 39.59, 14.98, 32.25,
83.0379626750946,0.21, -0.34, 0.00, 68.91, 0.55, 18.01, 39.43, 8.62, 31.75,
83.14701294898987,-0.33, -0.36, -0.18, -10.99, -51.15, -22.77, 40.60, 6.71, 28.93,
83.2560920715332,2.96, 0.37, 0.58, -43.03, 20.02, -67.26, 41.35, 11.99, 29.41,
83.3650860786438,1.47, 0.18, 0.43, -111.51, -45.35, -24.90, 40.56, 17.11, 28.88,
83.4742214679718,-0.34, 0.14, -0.02, -45.23, 114.50, 10.01, 40.97, 17.82, 28.26,
83.58385872840881,1.20, -0.37, 0.29, 47.85, -43.33, 23.32, 40.64, 17.25, 27.92,
83.69279861450195,2.44, 0.67, 0.58, 142.58, 2.56, 50.96, 39.92, 13.84, 30.53,
83.80192589759827,-0.08, -0.15, -0.04, 53.83, 37.23, 9.77, 39.79, 6.40, 29.96,
83.9102430343628,0.02, -0.33, 0.13, -29.42, -45.65, -26.43, 40.59, 5.41, 29.85,
84.01926898956299,2.83, -0.43, 0.70, -105.04, 10.50, -6.77, 40.72, 10.80, 30.94,
84.1285445690155,0.80, 0.33, -0.02, -72.75, -24.48, -3.17, 40.39, 14.54, 29.72,
84.239590883255,-0.54, 0.25, -0.22, 40.04, -51.27, -4.76, 40.54, 13.87, 29.27,
84.34830403327942,3.53, -0.11, -0.07, 27.89, 26.79, 40.95, 40.94, 13.37, 28.14,
84.45810389518738,1.25, -0.04, 0.37, 101.99, -15.26, 40.10, 40.55, 9.40, 30.46,
84.56797933578491,-0.40, -0.04, -0.29, -5.31, -75.68, -23.93, 39.37, 4.86, 28.23,
84.67821836471558,1.32, -0.36, 0.68, -53.16, 82.21, -59.20, 40.84, 9.96, 27.53,
84.78887844085693,2.09, -0.15, 0.63, -123.90, -14.59, -18.25, 41.31, 13.73, 30.02,
84.89894223213196,-0.25, 0.29, 0.07, -27.47, -18.62, 17.15, 41.41, 17.88, 26.12,
85.00837659835815,-0.19, 0.25, -0.23, 76.29, -27.53, -21.12, 40.92, 16.75, 27.59,
85.11816549301147,3.10, 1.13, 0.84, 86.79, 36.50, 1.83, 40.67, 15.48, 29.81,
85.22746562957764,0.19, -0.32, 0.04, 85.27, 19.53, 26.98, 40.12, 9.18, 31.32,
85.33619356155396,-0.20, -0.38, -0.08, 37.60, -58.78, -26.86, 39.51, 5.43, 28.82,
85.44721007347107,2.65, 0.23, 0.72, -105.04, 17.58, -28.75, 40.47, 11.54, 31.31,
85.55653309822083,1.11, 0.19, 0.26, -110.53, -37.60, -29.11, 40.61, 16.36, 30.87,
85.6661376953125,-0.27, 0.13, -0.30, 27.34, -14.16, 20.20, 40.60, 17.66, 29.02,
85.77525210380554,0.95, 0.70, 2.27, -60.79, 60.36, 43.52, 40.88, 15.58, 29.71,
85.88435506820679,1.81, 0.05, 0.40, 105.22, 1.53, 44.13, 40.33, 12.98, 30.68,
85.99414491653442,-0.34, -0.16, -0.10, 8.12, 64.45, 16.42, 39.37, 5.96, 31.03,
86.10423517227173,0.33, -0.22, 0.14, -102.72, -5.37, -38.33, 41.35, 9.30, 26.42,
86.21484279632568,2.45, -0.47, 0.78, -110.90, 25.70, -7.51, 40.52, 14.22, 29.15,
86.32493448257446,0.47, 0.43, 0.05, -56.34, -1.34, 16.78, 41.03, 16.81, 28.36,
86.43565011024475,-0.55, 0.26, -0.11, 47.42, -14.04, -12.82, 40.81, 16.10, 27.43,
86.54524493217468,2.84, 0.92, 0.63, 90.27, 15.93, 6.04, 40.75, 16.24, 29.24,
86.65563654899597,0.73, -0.28, 0.09, 104.43, -1.77, 27.16, 40.65, 10.12, 31.25,
86.76490664482117,-0.46, -0.25, -0.08, 16.60, -66.96, -32.53, 40.23, 6.88, 29.42,
86.87585163116455,3.43, -0.40, 0.15, -59.08, 14.77, -43.88, 40.87, 11.15, 29.81,
86.985426902771,1.54, 0.08, 0.36, -96.25, -34.85, -27.04, 40.95, 14.48, 30.32,
87.09503316879272,-0.02, 0.07, -0.16, -11.54, 45.10, 5.07, 40.84, 15.49, 28.21,
87.20557498931885,0.41, -0.00, 0.23, -14.04, 21.00, 34.00, 41.41, 14.84, 27.87,
87.31682181358337,2.24, 0.52, 0.65, 115.78, 25.33, 56.34, 40.23, 13.02, 29.38,
87.42524838447571,-0.25, -0.26, -0.02, 44.43, 55.18, 20.45, 39.38, 4.31, 29.75,
87.53554463386536,0.12, -0.32, 0.08, -28.14, -42.54, -36.87, 40.00, 5.91, 28.16,
87.64565801620483,2.70, -0.43, 0.72, -124.15, 12.21, -9.95, 40.43, 11.32, 30.48,
87.75452375411987,0.36, 0.40, -0.05, -56.46, -29.48, -11.60, 40.58, 16.44, 29.52,
87.86479902267456,-0.42, 0.32, -0.13, 51.94, -20.94, 8.12, 40.80, 15.52, 28.08,
87.97434711456299,2.58, 0.73, 0.66, 86.61, 11.41, 10.68, 39.53, 14.20, 29.44,
88.08314442634583,0.84, -0.15, 0.02, 101.87, -6.90, 27.95, 39.50, 6.71, 31.85,
88.19227957725525,-0.30, -0.15, -0.27, 60.55, -54.20, -31.68, 39.69, 5.07, 26.72,
88.30261468887329,3.19, -0.22, 0.30, -44.25, -4.15, -43.15, 40.88, 8.24, 28.88,
88.41285467147827,1.36, 0.13, 0.35, -125.12, -34.55, -16.11, 41.16, 11.45, 28.63,
88.52387619018555,-0.08, 0.39, -0.13, -6.47, 5.68, 16.66, 40.82, 13.73, 28.41,
88.63304400444031,0.52, -0.23, -0.15, 87.89, -28.02, 7.75, 40.50, 11.52, 29.19,
88.74392461776733,2.40, 0.56, 0.76, 121.28, 14.59, 43.09, 40.60, 9.47, 30.04,
88.85307431221008,-0.11, -0.18, 0.18, 24.72, 59.08, 5.86, 39.01, 2.64, 29.35,
88.96225547790527,-0.00, -0.20, -0.03, 14.77, -65.00, -45.10, 40.11, 2.60, 26.33,
89.07295846939087,2.05, 0.11, 0.54, -85.02, 27.95, -18.74, 41.78, 8.39, 29.35,
89.18285655975342,0.65, 0.27, 0.29, -104.55, -9.16, -45.35, 41.22, 13.38, 29.32,
89.29217457771301,-0.03, 0.08, -0.33, 22.28, -30.88, -2.81, 40.78, 18.01, 28.72,
89.4045512676239,3.15, 0.23, 0.83, 3.78, 50.90, 35.46, 41.30, 16.42, 27.55,
89.51468348503113,1.74, 0.43, 0.54, 93.87, 6.90, 48.71, 40.61, 12.24, 31.19,
89.62453866004944,0.11, 0.01, -0.23, 3.85, 23.62, 5.25, 39.12, 7.59, 33.47,
89.73391652107239,0.65, -0.11, 0.05, -72.14, -64.33, -72.27, 40.38, 9.46, 31.56,
89.84463715553284,2.22, -0.45, 0.80, -95.21, 9.70, -13.24, 41.38, 16.08, 31.45,
89.95375514030457,0.18, 0.31, 0.14, -41.63, 36.68, -19.65, 40.84, 20.32, 31.30,
90.06340026855469,0.03, 0.16, -0.22, 40.95, -45.41, 35.03, 40.20, 21.58, 31.31,
90.1736159324646,1.42, -0.18, 0.58, 30.03, -45.29, 54.99, 42.43, 15.65, 30.90,
90.28272485733032,1.18, -0.05, 0.32, 108.76, 9.89, 69.15, 41.44, 9.99, 31.35,
90.3918981552124,0.03, -0.08, -0.45, 10.93, 3.72, -2.56, 40.03, 4.19, 32.21,
90.50294589996338,1.21, -0.11, 0.73, -62.32, -61.58, -64.51, 42.32, 7.70, 30.27,
90.61181211471558,2.18, -0.44, 0.85, -104.19, 2.32, -33.26, 42.90, 13.11, 30.99,
90.72169041633606,0.37, 0.31, 0.03, -43.21, 56.40, -2.20, 42.25, 16.54, 30.85,
90.83050847053528,-0.25, 0.17, -0.24, 8.91, -11.78, 16.17, 41.53, 17.03, 30.32,
90.93906450271606,1.64, 0.07, 0.82, 66.28, 63.78, 2.26, 42.88, 13.84, 29.31,
91.04927349090576,0.93, -0.35, 0.35, 83.19, 40.65, 66.41, 41.30, 7.63, 31.32,
91.15843081474304,-0.09, -0.14, -0.21, -6.77, 0.12, -16.05, 40.55, 5.13, 32.46,
91.2673852443695,1.23, -0.32, 0.73, -70.74, -19.47, -62.99, 42.27, 9.31, 30.94,
91.37787556648254,2.30, -0.37, 0.71, -102.97, 18.19, -19.59, 42.63, 14.92, 30.76,
91.48781275749207,-0.22, 0.38, 0.14, -54.44, 41.32, 6.59, 41.81, 20.18, 30.15,
91.59649443626404,-0.37, 0.26, -0.25, 33.39, -13.85, 5.37, 41.59, 17.98, 29.15,
91.70548677444458,1.71, 0.36, 0.75, 51.27, 28.38, 33.14, 42.97, 14.17, 29.38,
91.81550550460815,0.91, -0.20, 0.25, 101.44, 15.69, 51.39, 42.11, 7.58, 30.63,
91.9244487285614,-0.05, -0.07, -0.20, 1.71, -4.09, -22.71, 40.23, 4.09, 30.97,
92.03440999984741,1.61, -0.13, 0.33, -74.22, -14.10, -21.85, 42.80, 6.96, 29.79,
92.1455659866333,2.25, -0.32, 0.76, -114.44, -0.67, -26.61, 43.42, 11.93, 30.77,
92.25488805770874,-0.05, 0.25, 0.04, -65.12, 45.65, 10.01, 42.87, 17.07, 30.11,
92.36524653434753,-0.29, 0.22, -0.19, 79.83, -31.68, 1.77, 42.70, 16.30, 28.25,
92.47579073905945,2.14, 0.45, 0.72, 73.73, 45.59, 5.80, 42.90, 13.32, 30.16,
92.58418154716492,0.99, -0.31, 0.19, 88.56, -0.12, 49.13, 42.20, 7.07, 30.91,
92.69386410713196,-0.24, -0.11, -0.28, -20.57, -9.52, -30.27, 41.41, 5.38, 28.56,
92.80403661727905,1.57, -0.34, 0.67, -41.69, 30.52, -45.23, 43.70, 7.86, 27.45,
92.91568875312805,2.05, -0.07, 0.60, -107.54, 12.63, -34.30, 43.65, 12.06, 30.64,
93.02710843086243,-0.04, 0.13, -0.12, -9.70, 39.86, 18.19, 42.35, 15.84, 28.88,
93.13799548149109,-0.08, 0.12, -0.28, 26.25, 3.72, -0.61, 43.38, 15.12, 27.81,
93.24830293655396,2.38, 0.76, 0.65, 81.67, 16.42, 9.52, 42.42, 12.45, 30.42,
93.35745549201965,0.13, -0.31, 0.09, 56.82, -9.22, 34.73, 41.46, 7.45, 30.83,
93.46627259254456,-0.24, -0.24, -0.14, -10.68, -31.56, -28.38, 40.44, 6.18, 29.96,
93.57606911659241,2.41, 0.53, 0.53, -65.80, 0.85, -27.53, 42.36, 10.13, 29.98,
93.68625593185425,1.28, 0.05, 0.31, -100.77, -39.18, -21.85, 42.47, 16.24, 29.09,
93.79663133621216,-0.55, 0.17, -0.28, 34.06, -9.46, -13.92, 42.69, 17.65, 27.44,
93.90524482727051,0.84, 0.16, 1.19, 38.39, 80.38, 48.16, 43.10, 16.71, 28.10,
94.01497411727905,2.18, 0.42, 0.48, 111.39, 31.19, 36.07, 42.19, 13.20, 30.91,
94.12660717964172,-0.09, -0.27, -0.08, 40.71, -4.46, 13.00, 41.46, 6.05, 29.48,
94.23673248291016,0.06, -0.28, 0.04, -27.22, -47.55, -13.24, 41.16, 6.35, 28.49,
94.34608960151672,2.96, -0.40, 0.64, -86.18, 14.22, 4.39, 42.87, 10.11, 30.26,
94.45703125,0.63, 0.36, 0.13, -58.72, -44.49, -24.54, 42.11, 15.61, 29.61,
94.56747341156006,-0.31, 0.25, -0.10, 54.08, -19.53, 11.72, 41.46, 15.72, 28.59,
94.67734241485596,3.43, -0.30, -0.59, -26.67, 2.50, 38.45, 41.14, 14.31, 31.03,
94.78765034675598,1.31, 0.10, 0.23, 110.17, -17.82, 30.88, 40.82, 10.02, 32.04,
94.89608073234558,-0.33, -0.01, -0.17, 19.35, -12.76, 1.22, 40.61, 5.46, 30.10,
95.00791192054749,1.20, -0.13, 0.82, -97.05, 43.46, -50.72, 42.09, 6.71, 27.34,
95.11828517913818,2.17, -0.51, 0.80, -119.02, -13.00, -41.69, 42.32, 13.75, 30.02,
95.22898483276367,-0.52, 0.39, 0.15, -84.29, 83.68, 1.89, 41.98, 18.01, 26.61,
95.3397970199585,-0.21, 0.17, -0.21, 45.29, -5.80, 4.70, 41.75, 16.59, 28.15,
95.450443983078,2.72, 0.94, 0.54, 100.89, 9.22, -2.50, 41.70, 14.72, 30.69,
95.5591447353363,0.23, -0.48, 0.11, 54.93, 2.08, 23.86, 41.27, 7.80, 30.03,
95.66866445541382,-0.23, -0.31, -0.09, 11.29, -19.41, -27.28, 40.81, 7.04, 29.87,
95.778879404068,2.37, 0.36, 0.60, -98.27, 37.60, -25.70, 41.99, 12.65, 32.28,
95.8893814086914,0.86, 0.28, 0.14, -96.25, -28.14, -22.83, 42.21, 16.31, 30.75,
96.0000250339508,-0.47, 0.16, -0.26, 51.64, -24.05, 5.31, 42.09, 17.24, 28.64,
96.10882687568665,1.76, 0.83, 2.26, -46.45, 100.16, 68.66, 42.20, 15.99, 28.32,
96.21942567825317,1.83, 0.22, 0.36, 127.38, 0.79, 46.69, 41.75, 12.54, 31.43,
96.32898759841919,-0.08, -0.30, -0.17, 33.75, 2.20, -6.41, 41.47, 5.19, 30.04,
96.44027876853943,0.55, -0.25, 0.14, -33.75, -90.94, -20.94, 43.77, 7.29, 27.42,
96.55086660385132,2.23, -0.75, 0.78, -104.00, 21.42, 2.87, 43.01, 10.51, 29.52,
96.66039729118347,-0.21, 0.32, -0.12, -68.60, -23.99, -1.77, 42.97, 15.08, 28.10,
96.77015686035156,-0.35, 0.20, -0.09, 38.70, -5.13, 0.73, 42.85, 16.09, 28.00,
96.88083362579346,1.98, 0.40, 0.56, 58.84, 49.68, 5.86, 42.68, 14.75, 29.46,
96.98914241790771,0.95, -0.18, 0.19, 82.15, -7.32, 27.77, 42.61, 9.84, 31.57,
97.09910655021667,-0.23, -0.00, -0.13, -16.60, -10.01, -36.87, 40.42, 6.43, 32.07,
97.20970058441162,0.97, -0.10, 0.36, -103.15, 11.29, -14.83, 42.80, 11.85, 28.04,
97.31981682777405,2.24, -0.54, 0.76, -122.86, 8.18, -10.99, 42.14, 15.78, 30.86,
97.42919588088989,-0.02, 0.45, -0.09, -9.09, -30.09, 12.08, 41.86, 18.87, 26.66,
97.54026246070862,-0.17, 0.13, -0.21, 53.59, 4.58, -12.94, 42.09, 18.74, 26.44,
97.65013813972473,2.24, 0.75, 0.47, 77.15, 16.48, -13.24, 42.31, 17.15, 29.42,
97.75982618331909,0.43, -0.40, 0.09, 79.47, -1.34, 32.41, 41.52, 13.16, 31.85,
97.86891484260559,-0.20, -0.30, -0.24, 26.92, -15.56, -22.83, 41.20, 9.31, 29.91,
97.97974395751953,2.52, 0.30, 0.40, -66.16, 39.79, -26.73, 42.44, 13.72, 32.07,
98.0898642539978,1.35, 0.06, 0.30, -94.24, -32.71, -21.97, 41.94, 17.02, 31.54,
98.2002182006836,-0.41, 0.03, -0.27, 51.88, -12.51, 6.53, 42.22, 17.65, 28.52,
98.3100893497467,1.13, 0.27, 0.96, -65.80, 45.84, 59.45, 43.48, 16.55, 27.08,
98.420725107193,2.21, 0.74, 0.64, 108.15, 28.32, 28.50, 42.52, 14.12, 31.38,
98.52974343299866,0.04, -0.29, -0.18, 13.67, 71.90, -10.62, 41.71, 7.28, 31.67,
98.63931918144226,0.28, -0.11, 0.11, -117.86, 7.75, 20.69, 42.87, 10.73, 29.30,
98.74937272071838,2.69, -0.35, 0.61, -99.91, 24.54, 5.92, 42.75, 15.64, 30.51,
98.86058568954468,0.98, 0.32, 0.01, -37.66, -66.28, -17.33, 42.24, 19.25, 29.60,
98.97120642662048,-0.28, 0.23, -0.03, 63.42, -19.17, 3.42, 41.94, 18.32, 26.79,
99.08021640777588,2.36, -0.29, 1.06, 38.82, 25.27, 80.26, 42.55, 16.78, 27.76,
99.19073295593262,1.23, -0.13, 0.26, 103.09, -17.58, 39.00, 40.88, 9.24, 30.30,
99.29930877685547,-0.17, -0.02, -0.16, 14.47, -46.57, -5.68, 41.71, 6.81, 29.05,
99.4095287322998,1.10, -0.04, 0.66, -95.21, 50.90, -39.73, 43.03, 10.90, 28.87,
99.51843738555908,2.38, -0.39, 0.76, -96.56, 1.83, -25.57, 42.64, 14.75, 31.01,
99.62823939323425,-0.29, 0.25, -0.20, -22.71, -33.39, 1.59, 41.93, 18.07, 27.42,
99.73793077468872,-0.22, 0.21, -0.18, 36.80, 7.02, -2.32, 42.33, 17.38, 26.31,
99.84713220596313,2.25, 0.10, 0.59, 42.97, 35.03, 11.96, 42.24, 16.25, 29.64,
99.95715165138245,0.91, -0.24, 0.14, 99.91, -6.65, 50.60, 41.60, 8.26, 30.57,
100.06797885894775,-0.21, -0.18, -0.11, 5.43, -23.25, -28.56, 41.50, 6.54, 29.77,
100.17928075790405,2.11, -0.20, 0.80, -43.52, 42.54, -21.18, 42.04, 9.06, 29.82,
100.29011917114258,2.14, -0.19, 0.51, -81.42, -15.01, -15.93, 41.81, 11.02, 33.22,
100.39971709251404,-0.20, 0.27, 0.13, -27.89, 39.37, 2.87, 42.25, 15.08, 30.03,
100.50993776321411,-0.16, 0.22, -0.32, 15.01, -9.89, 6.90, 42.32, 15.11, 26.62,
100.62036108970642,2.50, 0.50, 0.80, 64.15, 31.07, -9.46, 41.61, 11.77, 31.02,
100.73083901405334,0.70, -0.36, 0.06, 75.56, -12.76, 45.65, 41.17, 6.38, 28.41,
100.84025073051453,-0.37, -0.13, -0.18, -5.62, -40.04, -54.26, 41.70, 7.36, 28.23,
100.95006489753723,2.76, 0.58, 0.62, -53.04, 41.87, -32.71, 42.68, 10.69, 29.33,
101.06032419204712,1.34, 0.09, 0.22, -118.59, -35.52, -18.43, 42.66, 15.41, 30.43,
101.1692419052124,-0.25, 0.03, -0.23, 49.56, -10.74, -1.10, 42.40, 16.54, 27.86,
101.27840518951416,0.71, -0.17, 0.04, -9.58, 11.29, 36.25, 42.43, 15.53, 29.79,
101.3884117603302,2.49, 0.83, 0.56, 104.19, 32.53, -0.43, 40.70, 12.65, 31.99,
101.4987895488739,0.01, -0.39, 0.00, 47.42, 21.79, 25.45, 40.75, 6.91, 30.18,
101.6076991558075,-0.13, -0.23, -0.15, 23.80, -46.81, -32.96, 41.10, 6.24, 30.19,
101.71740889549255,2.39, 0.15, 0.64, -77.70, 21.36, -25.21, 42.42, 10.68, 31.69,
101.82732510566711,1.07, 0.13, 0.27, -109.62, -31.01, -15.26, 42.30, 14.71, 31.51,
101.93690586090088,-0.33, 0.17, -0.18, 32.59, -33.45, -10.56, 42.86, 16.32, 28.78,
102.04711937904358,1.13, 0.60, 1.52, -74.95, 60.97, 46.57, 42.44, 17.61, 30.00,
102.15634751319885,2.31, 0.68, 0.54, 137.51, 2.01, 39.43, 42.58, 13.70, 31.05,
102.26669239997864,-0.06, -0.27, -0.19, 67.20, 35.58, -18.80, 41.65, 6.74, 28.50,
102.37670612335205,0.15, -0.25, 0.00, 5.25, -45.96, -17.27, 42.69, 7.93, 27.25,
102.48495888710022,2.76, -0.38, 0.70, -81.30, 15.50, -9.58, 43.26, 11.35, 29.32,
102.59603428840637,0.97, 0.28, 0.10, -91.25, -62.26, -8.42, 42.61, 15.28, 29.24,
102.70600080490112,-0.73, 0.31, -0.26, 22.34, 8.36, -19.90, 43.13, 17.04, 25.93,
102.8160662651062,3.19, -0.12, 0.20, 9.58, 9.34, 67.63, 42.66, 16.91, 27.03,
102.92615938186646,1.50, 0.12, 0.32, 126.71, 7.87, 47.49, 41.59, 12.15, 30.85,
103.03608822822571,-0.09, -0.07, -0.20, 46.14, -23.93, 7.57, 41.15, 6.45, 30.86,
103.14608550071716,0.41, -0.18, 0.31, -34.06, -29.60, -6.47, 42.13, 5.47, 29.50,
103.25601005554199,2.36, -0.49, 0.73, -100.59, 2.14, -6.84, 42.71, 9.06, 30.98,
103.36600112915039,0.31, 0.22, -0.01, -51.82, -21.06, -3.60, 42.69, 13.99, 29.94,
103.47581768035889,-0.43, 0.22, -0.21, 33.75, -8.61, -2.38, 42.24, 14.87, 27.75,
103.58628940582275,2.09, 0.63, 0.69, 59.33, 16.54, 9.83, 42.70, 14.38, 31.29,
103.69479370117188,0.99, -0.10, 0.26, 87.52, -8.18, 35.64, 41.85, 8.08, 30.21,
103.80473256111145,-0.15, -0.06, -0.17, -6.16, -9.03, -18.62, 41.16, 5.33, 31.23,
103.91534805297852,2.60, -0.58, 0.48, -34.97, 50.96, -46.45, 43.20, 7.09, 28.91,
104.02534699440002,1.99, -0.18, 0.56, -104.25, -13.85, -25.57, 43.64, 9.78, 30.22,
104.13567805290222,-0.42, 0.11, -0.07, -69.34, 57.98, 12.33, 41.93, 14.31, 28.66,
104.2451684474945,0.08, 0.18, -0.17, 10.07, -0.06, -1.83, 41.82, 14.47, 28.11,
104.35446429252625,2.59, 0.99, 0.61, 71.35, 19.96, 2.32, 41.66, 13.05, 31.35,
104.46468234062195,0.35, -0.43, 0.02, 64.15, 17.40, 36.07, 41.14, 5.66, 29.66,
104.57295060157776,-0.15, -0.28, -0.22, 10.62, -35.64, -22.16, 40.06, 4.35, 29.72,
104.68306088447571,2.77, 0.21, 0.73, -45.47, 16.60, -32.71, 42.38, 7.14, 27.91,
104.79362416267395,1.40, -0.09, 0.50, -97.41, -16.17, -33.20, 42.93, 10.53, 29.60,
104.9037389755249,-0.10, 0.11, -0.27, 0.24, -26.12, -8.18, 42.11, 15.54, 28.60,
105.01337146759033,0.52, 0.08, 0.19, 4.58, -21.12, 15.38, 43.10, 14.70, 27.50,
105.12306332588196,2.15, 0.77, 0.87, 74.40, 31.07, 21.97, 42.79, 12.50, 30.19,
105.23318099975586,0.16, -0.34, -0.03, 57.01, 54.02, 3.42, 42.11, 6.53, 30.41,
105.343820810318,0.16, -0.24, -0.21, -1.77, -53.59, -12.33, 40.44, 4.92, 32.63,
105.45545744895935,2.11, -0.02, 0.55, -62.07, 20.75, -16.97, 43.82, 7.32, 29.58,
105.56552863121033,1.37, 0.16, 0.35, -69.52, -15.81, -32.84, 42.94, 14.53, 31.70,
105.67593097686768,-0.07, 0.02, -0.26, 48.65, -37.96, -28.14, 41.35, 16.35, 30.66,
105.78644227981567,0.57, 0.06, 0.38, -0.73, -29.97, 25.88, 42.40, 15.65, 30.02,
105.89622926712036,2.11, 0.78, 0.71, 94.42, 39.31, -1.83, 42.65, 13.34, 31.21,
106.00678205490112,0.38, -0.24, -0.00, 64.76, -2.50, 6.47, 41.59, 6.52, 31.88,
106.11589097976685,-0.13, -0.21, -0.09, -0.73, -48.65, -13.61, 40.58, 5.08, 31.86,
106.22638440132141,1.89, 0.45, 0.78, -34.61, -0.43, -23.50, 43.48, 9.14, 30.42,
106.33602452278137,0.99, 0.01, 0.45, -101.50, -0.06, -19.35, 43.54, 13.33, 31.16,
106.4463255405426,0.00, 0.09, -0.12, 29.97, -11.47, -14.59, 41.74, 15.76, 31.02,
106.55541586875916,0.22, 0.06, -0.13, 5.37, -44.49, 25.21, 42.41, 14.36, 30.52,
106.66652059555054,2.26, 0.97, 0.80, 62.19, 17.52, 11.23, 42.92, 12.90, 29.97,
106.77486896514893,0.49, -0.21, 0.08, 61.16, 29.17, 1.95, 41.50, 6.91, 32.47,
106.88401985168457,-0.19, -0.15, -0.27, -33.20, -25.15, -17.94, 40.71, 5.22, 32.57,
106.9960527420044,2.23, 0.72, 0.83, -87.89, 41.81, -55.48, 43.44, 9.69, 31.59,
107.10615563392639,1.54, 0.01, 0.45, -104.31, -7.93, -20.94, 43.59, 13.96, 32.15,
107.21490693092346,-0.34, 0.05, -0.44, 23.74, 1.95, -2.93, 42.35, 15.97, 32.09,
107.32506155967712,0.18, 0.03, 0.02, -0.85, -5.55, 21.24, 42.60, 15.14, 30.13,
107.4352011680603,2.69, 1.01, 0.71, 68.12, 35.40, 2.56, 42.72, 12.83, 30.29,
107.54375171661377,0.24, -0.40, 0.20, 41.87, 75.62, 34.97, 41.92, 7.17, 31.30,
107.65450167655945,-0.21, -0.09, -0.21, -11.17, -2.32, -28.69, 40.01, 4.90, 32.59,
107.76411628723145,3.87, -0.64, -0.32, -5.49, 6.84, -58.04, 43.29, 8.59, 30.29,
107.87435531616211,1.85, -0.26, 0.48, -123.66, -4.76, -35.77, 43.10, 13.94, 32.29,
107.98456811904907,-0.28, 0.07, -0.07, 5.62, -22.71, -7.69, 42.40, 17.10, 29.53,
108.09347414970398,0.10, 0.16, -0.16, -18.01, 23.13, 21.85, 43.37, 18.01, 27.36,
108.20471668243408,2.60, 0.97, 0.86, 61.95, 22.16, 22.71, 43.15, 15.28, 31.21,
108.31415605545044,0.73, -0.17, 0.07, 89.29, -7.26, 40.95, 41.93, 7.08, 30.79,
108.42280316352844,-0.38, -0.09, -0.29, 26.98, -12.57, -30.27, 42.20, 5.49, 30.11,
108.53322196006775,2.66, -0.09, 0.19, -23.62, 4.70, -41.44, 43.69, 8.68, 30.37,
108.64298629760742,1.68, 0.02, 0.53, -111.82, -9.16, -32.71, 43.75, 14.12, 31.30,
108.7532114982605,0.08, 0.13, -0.08, -25.02, -42.11, -5.25, 42.91, 17.31, 29.83,
108.86325478553772,0.30, 0.08, -0.15, 36.32, -19.47, 11.11, 43.40, 18.88, 28.33,
108.97313189506531,2.05, 0.78, 0.63, 91.98, 23.68, 20.20, 43.14, 15.06, 31.97,
109.08230113983154,0.41, -0.19, -0.04, 72.14, 17.64, 33.75, 41.82, 8.35, 31.70,
109.19198656082153,-0.34, -0.17, -0.23, 13.85, -8.06, -34.30, 41.99, 6.34, 29.86,
109.3020806312561,2.85, 0.64, 0.64, -72.33, 23.19, -35.64, 43.65, 9.18, 30.33,
109.41089868545532,1.47, 0.02, 0.37, -117.13, -23.86, -32.35, 44.08, 14.33, 30.51,
109.5206024646759,-0.11, 0.12, -0.17, -3.60, -37.48, 1.59, 42.72, 17.83, 29.09,
109.6307327747345,0.19, 0.07, 0.01, 37.11, -28.50, 26.98, 42.70, 18.10, 27.70,
109.73881387710571,2.74, 0.96, 0.70, 79.41, 7.20, 39.25, 42.33, 13.71, 31.75,
109.84830141067505,-0.33, -0.46, 0.33, 43.15, 11.66, 25.27, 42.60, 7.35, 28.86,
109.95740413665771,-0.27, -0.17, -0.16, -1.46, -49.68, -36.13, 42.37, 8.37, 28.78,
110.06673789024353,2.46, -0.13, 0.21, -44.19, 25.21, -28.44, 43.44, 11.54, 30.18,
110.17740321159363,1.52, 0.16, 0.48, -97.96, -31.49, -29.36, 43.10, 16.67, 30.03,
110.28727555274963,-0.24, 0.09, -0.09, 1.77, -17.40, -3.66, 43.03, 18.40, 27.31,
110.39619517326355,0.34, 0.01, -0.18, 16.24, -0.85, 33.69, 42.91, 19.03, 26.32,
110.5047779083252,1.99, 0.56, 0.65, 92.83, 34.67, 13.73, 42.22, 15.47, 31.53,
110.61432385444641,0.49, -0.29, -0.04, 83.37, 9.34, 36.07, 41.82, 8.51, 29.70,
110.72274851799011,-0.36, -0.18, -0.36, 14.04, -35.40, -27.47, 42.63, 7.42, 28.78,
110.8333489894867,2.37, -0.03, 0.79, -57.07, 8.54, -24.66, 43.20, 9.69, 30.15,
110.9427273273468,1.20, 0.14, 0.14, -93.75, -25.63, -24.60, 42.96, 14.67, 30.07,
111.05228638648987,-0.32, -0.01, -0.24, 35.34, -24.35, -23.50, 41.85, 16.91, 28.21,
111.16175961494446,0.90, 0.40, 1.69, -47.18, 72.14, 52.55, 42.40, 17.03, 28.63,
111.27243185043335,2.23, 0.59, 0.60, 112.85, 23.62, 33.81, 41.20, 12.16, 33.14,
111.38305616378784,-0.10, -0.25, -0.13, 20.45, 14.34, -12.51, 41.03, 6.92, 30.24,
111.49274921417236,0.01, -0.30, -0.02, -3.48, -41.14, -31.80, 41.85, 7.63, 29.05,
111.60309863090515,2.66, -0.40, 0.78, -73.12, 10.86, -13.92, 42.72, 12.41, 29.80,
111.71335220336914,1.00, 0.29, 0.19, -86.49, -37.41, -10.93, 42.36, 16.38, 30.13,
111.82306432723999,-0.37, 0.16, -0.20, 23.93, -39.55, 7.45, 42.33, 17.35, 27.78,
111.93326306343079,1.83, 0.45, 1.21, 29.11, 103.27, 50.23, 42.09, 15.36, 28.17,
112.04426121711731,1.67, 0.30, 0.42, 125.43, -14.28, 40.71, 41.65, 11.69, 30.52,
112.15317749977112,-0.14, -0.18, -0.16, 44.80, 10.38, -5.86, 41.48, 5.86, 28.23,
112.263254404068,0.51, -0.30, 0.22, -6.90, -47.55, -28.26, 41.60, 6.53, 27.54,
112.37362885475159,2.29, -0.58, 0.76, -88.81, 15.32, -2.99, 42.61, 10.63, 30.43,
112.48356890678406,0.35, 0.24, -0.03, -56.15, -11.78, 17.88, 41.74, 14.60, 28.32,
112.59267520904541,-0.34, 0.19, -0.21, 13.98, -3.60, -6.71, 41.96, 14.21, 27.66,
112.70252776145935,2.53, -0.19, 0.66, 22.03, 36.99, 16.48, 41.94, 13.32, 29.09,
112.81180238723755,1.19, -0.12, 0.20, 113.59, -14.16, 29.72, 41.21, 8.42, 29.68,
112.92216777801514,-0.24, -0.03, -0.21, -10.25, -8.42, -15.08, 40.69, 4.70, 27.59,
113.03181648254395,1.15, -0.07, 0.81, -52.31, -0.49, -28.75, 42.20, 6.96, 26.28,
113.14191794395447,2.33, -0.25, 0.63, -112.73, 13.24, -15.69, 41.92, 10.64, 30.18,
113.25154709815979,0.04, 0.35, 0.07, -44.01, 50.96, 14.47, 41.28, 15.12, 29.14,
113.36041283607483,-0.21, 0.19, -0.12, 33.08, 4.82, -10.25, 42.25, 15.09, 28.45,
113.4694299697876,2.83, 0.67, 0.74, 75.32, 31.37, -0.49, 40.93, 14.20, 31.18,
113.57829737663269,0.61, -0.40, 0.14, 88.50, -11.17, 36.68, 41.02, 8.13, 30.47,
113.6874189376831,-0.29, -0.26, -0.06, 4.76, -44.07, -23.93, 40.23, 6.19, 29.60,
113.79728245735168,2.22, -0.18, 0.52, -41.69, 38.45, -46.45, 41.06, 10.99, 28.05,
113.90738892555237,1.57, 0.02, 0.45, -119.51, -32.35, -32.84, 41.60, 14.27, 31.43,
114.01703095436096,-0.42, 0.24, 0.12, -40.95, 48.10, -3.48, 41.71, 17.97, 29.35,
114.12741994857788,0.51, -0.07, 0.10, 11.17, 11.47, 21.06, 41.33, 17.57, 27.43,
114.23656153678894,2.38, 0.96, 0.72, 113.77, 25.51, 29.54, 40.52, 14.00, 30.41,
114.34508633613586,-0.07, -0.33, 0.04, 77.03, 16.54, 24.96, 40.93, 6.56, 27.47,
114.4545567035675,-0.43, -0.36, -0.21, -13.67, -28.69, -22.52, 40.77, 6.42, 28.09,
114.56461524963379,3.12, -0.08, 0.78, -89.78, 35.64, -10.07, 41.69, 10.47, 30.00,
114.67351841926575,0.56, 0.39, -0.12, -67.26, -8.97, -19.65, 40.91, 13.82, 31.87,
114.78320527076721,-0.48, 0.08, -0.10, 54.63, -26.79, 1.71, 40.53, 14.88, 30.52,
114.8930242061615,2.07, 0.50, 1.60, -0.61, 79.71, 13.61, 40.56, 13.42, 30.35,
115.00205516815186,1.94, 0.14, 0.37, 126.40, 3.11, 36.13, 40.61, 9.78, 32.85,
115.1115448474884,-0.11, -0.18, -0.05, 30.58, -22.46, 10.86, 39.82, 4.93, 29.63,
115.22159028053284,-0.12, -0.24, -0.16, -135.07, -4.70, 7.20, 41.46, 5.69, 28.12,
115.33208990097046,2.46, -0.48, 0.78, -114.75, 22.83, 4.03, 41.94, 9.51, 29.50,
115.44163227081299,0.64, 0.33, -0.06, -60.73, -27.89, -2.20, 41.20, 13.92, 30.11,
115.55090832710266,-0.59, 0.19, -0.17, 46.88, -25.45, -4.88, 41.35, 14.34, 27.93,
115.66117453575134,3.48, 0.31, -0.13, 38.21, 28.44, 28.93, 40.98, 12.35, 31.30,
115.77157950401306,1.39, -0.10, 0.31, 112.49, -17.76, 21.79, 40.10, 7.64, 31.42,
115.88157916069031,-0.01, -0.06, -0.07, 20.02, -41.50, 6.41, 39.27, 4.54, 31.14,
115.99093985557556,0.07, -0.21, 0.24, -81.97, -16.72, -34.42, 41.06, 5.16, 27.50,
116.10191798210144,2.67, -0.55, 0.88, -116.15, 22.28, -7.51, 41.31, 10.05, 30.16,
116.21268701553345,0.32, 0.41, -0.13, -54.26, -50.72, -13.00, 41.17, 16.38, 28.37,
116.32261681556702,-0.42, 0.19, -0.23, 37.66, -45.72, -5.07, 41.49, 16.03, 28.45,
116.43180298805237,2.53, 0.12, 0.93, 6.59, 35.52, 8.54, 41.36, 14.59, 29.93,
116.54121518135071,1.11, -0.10, 0.29, 123.60, -18.37, 37.17, 40.52, 9.40, 31.09,
116.6510648727417,-0.11, -0.12, -0.09, 15.93, 1.22, -18.07, 39.93, 5.15, 29.35,
116.76104593276978,1.11, -0.12, 0.36, -44.86, -14.53, -22.09, 41.97, 6.97, 27.04,
116.87096047401428,2.53, -0.43, 0.93, -116.76, 24.05, -14.53, 41.20, 13.51, 30.55,
116.98139238357544,-0.38, 0.36, 0.14, -77.03, 16.05, 3.85, 41.52, 15.89, 27.32,
117.09022569656372,-0.32, 0.29, -0.15, 44.31, 6.59, 1.89, 41.42, 15.28, 27.10,
117.19990587234497,1.98, 0.15, 0.78, 35.83, 42.30, 7.93, 40.31, 14.25, 29.81,
117.30917835235596,1.07, -0.28, 0.23, 100.28, -15.69, 36.44, 39.40, 9.80, 30.73,
117.41931366920471,-0.32, 0.01, -0.18, 12.08, -16.11, -30.33, 39.33, 6.27, 30.76,
117.52894401550293,1.13, 0.20, 1.67, -185.79, 104.74, -21.12, 41.24, 8.12, 27.06,
117.63901615142822,2.34, -0.16, 0.57, -107.18, 6.10, -12.39, 40.05, 13.79, 31.98,
117.74954199790955,-0.09, 0.33, -0.03, -31.43, 11.96, 18.80, 40.69, 15.25, 29.06,
117.85865044593811,-0.31, 0.29, -0.22, 114.87, -44.74, -5.00, 40.66, 13.87, 27.69,
117.96959972381592,2.74, 0.97, 0.70, 78.61, 30.33, -2.69, 40.11, 11.58, 31.25,
118.07830047607422,0.43, -0.42, 0.10, 63.48, -7.32, 17.94, 39.43, 7.04, 30.38,
118.18857097625732,-0.59, -0.17, -0.21, 2.01, -51.88, -37.11, 38.71, 4.87, 29.58,
118.29794311523438,3.11, 0.46, 0.55, -49.62, 39.86, -13.92, 40.14, 9.35, 30.99,
118.40812349319458,1.42, 0.17, 0.28, -102.42, -49.80, -15.44, 40.49, 12.43, 31.19,
118.51740002632141,-0.23, 0.15, -0.49, 21.18, -35.16, 9.40, 39.88, 14.18, 29.72,
118.62804198265076,0.70, -0.12, -0.05, -5.74, 16.72, 47.67, 41.38, 13.82, 26.16,
118.73843216896057,2.30, 0.64, 0.72, 116.27, 25.45, 18.01, 40.15, 11.28, 29.88,
118.84667444229126,0.61, -0.33, -0.11, 33.02, 82.52, 51.09, 40.06, 5.81, 28.08,
118.95634365081787,-1.03, -0.09, -0.82, -47.97, -108.46, -45.23, 40.60, 6.62, 27.26,
119.06574606895447,2.90, -0.32, 0.80, -81.12, 23.93, -9.16, 40.89, 12.07, 30.76,
119.17589211463928,0.98, 0.36, -0.01, -85.27, -13.92, -18.68, 40.69, 16.15, 28.97,
119.28616642951965,-0.70, 0.14, -0.27, 36.07, -23.25, -16.24, 40.98, 16.41, 27.58,
119.39582562446594,4.00, 0.37, 0.60, -10.80, 156.37, 39.61, 40.34, 16.27, 26.77,
119.50599336624146,1.27, -0.18, 0.14, 116.46, -1.46, 32.71, 39.56, 11.90, 31.84,
119.61650252342224,0.25, -0.11, -0.36, 12.57, -37.48, -17.15, 38.33, 7.63, 32.13,
119.72616505622864,0.88, -0.10, 0.43, -114.87, -28.08, -16.17, 40.43, 11.49, 29.26,
119.83641815185547,2.43, -0.43, 0.69, -89.84, 15.50, -8.97, 40.95, 14.14, 31.87,
119.94594669342041,0.57, 0.31, -0.05, -0.43, -25.27, 10.68, 40.82, 16.32, 29.37,
120.05600786209106,-0.54, 0.32, -0.09, 88.68, -61.46, -3.97, 40.56, 14.98, 28.72,
120.1665825843811,2.17, 0.96, 0.81, 49.38, 40.77, -0.12, 40.56, 12.93, 29.13,
120.27641153335571,0.77, -0.21, 0.16, 86.00, -23.86, 36.99, 40.03, 8.33, 29.19,
120.38628935813904,-0.86, -0.05, -0.19, 35.77, -78.31, -56.34, 40.09, 5.31, 27.83,
120.496267080307,3.43, -0.17, 0.28, -35.34, 103.03, -58.96, 40.45, 9.39, 28.77,
120.60567450523376,1.63, -0.02, 0.53, -88.32, -42.30, -17.40, 40.75, 11.72, 30.09,
120.7164933681488,0.05, 0.35, -0.22, -35.34, 94.18, 10.31, 41.11, 13.66, 28.53,
120.82469844818115,0.01, 0.11, -0.10, 41.63, -36.62, 4.03, 41.06, 13.02, 28.04,
120.93551683425903,2.42, 0.82, 0.67, 79.71, 44.62, -8.06, 40.44, 11.85, 30.66,
121.0446846485138,-0.07, -0.29, 0.03, 45.53, 4.15, 26.79, 39.53, 7.04, 32.13,
121.15503931045532,-0.36, -0.42, -0.15, 28.75, -99.98, -39.00, 40.17, 6.02, 28.42,
121.26612401008606,2.10, 0.30, 0.87, -86.85, 26.12, -14.89, 40.33, 10.17, 30.07,
121.37645983695984,1.02, 0.28, 0.23, -93.51, -37.17, -27.71, 41.00, 13.88, 29.09,
121.48517775535583,-0.37, -0.01, -0.37, 34.79, -85.63, -0.31, 40.73, 15.25, 30.35,
121.59554147720337,0.81, 0.13, 0.72, -54.14, 42.85, 59.69, 41.85, 15.39, 24.69,
121.703115940094,2.51, 0.53, 0.60, 86.73, 37.66, 28.20, 40.82, 13.17, 30.40,
121.814612865448,1.24, -0.10, -0.19, 15.32, 34.42, -9.83, 39.75, 7.23, 30.90,
121.92367601394653,-0.18, -0.14, -1.08, -91.43, 109.25, 18.19, 41.59, 10.47, 28.20,
122.03403210639954,2.83, -0.27, 0.75, -78.92, 20.57, 6.53, 40.23, 13.54, 30.69,
122.1444730758667,0.93, 0.36, 0.15, -50.78, 43.88, 6.41, 40.43, 15.99, 31.31,
122.25312304496765,-0.40, 0.09, 0.24, 83.07, -108.40, -31.56, 40.32, 15.34, 30.14,
122.363205909729,3.89, -0.44, 2.99, 94.12, 256.41, 51.09, 41.46, 14.38, 24.93,
122.47250962257385,1.56, 0.09, 0.36, 108.40, -11.54, 30.33, 39.42, 10.68, 32.46,
122.58184957504272,-0.43, -0.26, -0.15, 0.55, -38.51, -56.58, 38.84, 5.53, 30.93,
122.69179463386536,0.36, -0.17, 0.50, -45.04, -14.71, -12.70, 40.65, 8.30, 29.61,
122.80305457115173,2.21, -0.28, 0.75, -90.58, 3.11, -10.62, 39.95, 12.67, 30.79,
122.91290974617004,0.64, 0.29, 0.04, -33.39, -19.84, -8.97, 40.37, 14.69, 29.98,
123.02283763885498,-0.25, 0.19, -0.10, 89.90, -45.96, -9.64, 40.75, 14.69, 27.51,
123.13304471969604,2.20, 0.37, 0.92, 12.76, 89.60, -9.03, 40.75, 13.85, 28.63,
123.24237656593323,0.85, -0.27, 0.18, 66.71, -4.09, 31.86, 39.49, 8.30, 31.13,
123.35238194465637,-0.59, -0.17, -0.19, -5.43, -41.26, -62.87, 39.58, 8.90, 29.93,
123.46328592300415,1.81, 0.01, 0.65, -1.10, 36.44, -26.86, 41.78, 10.29, 29.63,
123.57199597358704,2.11, 0.04, 0.67, -83.98, 1.71, -29.05, 41.27, 14.25, 30.36,
123.68188071250916,0.39, 0.18, -0.04, -48.52, 16.05, 20.14, 41.22, 16.67, 27.34,
123.79176592826843,-0.21, 0.20, -0.06, 97.11, -65.61, -8.18, 41.03, 15.99, 25.87,
123.90221905708313,2.44, 0.88, 0.75, 74.40, 47.24, -0.37, 40.86, 13.37, 31.05,
124.01172065734863,0.72, -0.14, 0.13, 66.59, -11.29, 21.18, 40.30, 8.33, 29.79,
124.12144303321838,-0.60, -0.30, -0.34, 14.53, -113.34, -42.05, 39.21, 7.02, 30.96,
124.23006391525269,2.64, 0.12, 0.21, -30.09, 24.78, -48.77, 41.03, 11.25, 29.46,
124.33928179740906,1.72, -0.03, 0.49, -84.53, -44.37, -6.71, 41.87, 13.72, 29.99,
124.44898867607117,-0.22, 0.01, 0.11, -40.10, 77.70, 19.71, 41.48, 15.89, 27.88,
124.55920648574829,0.36, 0.09, -0.13, 56.64, -16.66, -0.31, 41.24, 14.37, 28.56,
124.66798734664917,2.30, 0.78, 0.69, 68.24, 51.45, 21.91, 40.58, 11.61, 30.73,
124.77858209609985,0.29, -0.01, 0.07, 22.40, 52.86, -1.53, 38.64, 8.25, 34.44,
124.88845992088318,0.12, -0.31, -0.25, -35.10, -48.10, -28.87, 39.14, 8.62, 32.67,
124.99809694290161,1.71, 0.25, 0.70, -23.50, -58.29, -23.38, 42.07, 13.43, 30.92,
125.10717344284058,1.19, 0.22, 0.42, -59.51, -30.70, -18.43, 42.26, 16.38, 29.75,
125.2167694568634,0.05, 0.01, -0.01, -18.74, -19.65, 29.54, 42.71, 18.55, 28.31,
125.32718658447266,1.15, 0.44, 0.79, 18.98, 53.53, 16.78, 42.94, 17.50, 26.00,
125.43595004081726,2.09, 0.26, 0.67, 74.22, 44.01, 64.88, 42.50, 11.68, 29.46,
125.54559779167175,0.03, -0.08, -0.05, 45.41, 51.94, 2.75, 41.53, 7.43, 31.42,
125.6552345752716,0.33, -0.05, -0.11, -30.94, -66.65, -2.69, 42.19, 7.15, 32.98,
125.76540470123291,2.23, 0.07, 0.65, -66.16, 22.16, -1.40, 43.55, 10.57, 29.80,
125.87529039382935,0.76, 0.27, 0.23, -73.61, 19.59, -14.47, 43.46, 12.87, 28.96,
125.98409032821655,-0.31, 0.06, -0.24, 33.14, -4.33, 0.98, 41.81, 13.79, 28.22,
126.0938560962677,1.82, 1.02, 2.18, 145.94, 89.72, 4.27, 43.04, 12.26, 28.70,
126.20344853401184,2.00, 0.18, 0.39, 83.31, 24.11, 50.17, 43.12, 7.71, 30.29,
126.3118679523468,-0.26, -0.18, -0.05, 36.50, 23.62, -35.71, 41.48, 5.00, 28.36,
126.42233681678772,0.18, -0.07, -0.06, -34.00, -59.88, -20.87, 41.66, 6.68, 29.59,
126.5325198173523,2.25, -0.10, 0.80, -79.47, -5.37, -0.73, 43.19, 10.01, 29.13,
126.64242959022522,0.62, 0.34, 0.07, -56.34, -9.52, 2.14, 43.29, 12.84, 26.88,
126.75252676010132,-0.32, 0.09, -0.14, 33.45, 5.49, -12.88, 42.32, 13.07, 26.89,
126.86170291900635,2.53, -0.17, 0.21, -17.82, 67.08, 10.74, 43.04, 11.99, 29.58,
126.9707624912262,1.08, -0.20, 0.41, 81.79, 3.36, 36.50, 42.47, 7.03, 29.66,
127.07997417449951,-0.14, -0.04, -0.11, 16.78, -8.67, -7.32, 41.42, 6.32, 29.53,
127.18986010551453,0.94, -0.06, 1.17, -43.15, -29.05, -28.26, 42.77, 7.45, 28.15,
127.30013656616211,2.07, -0.18, 0.67, -98.63, -11.29, -19.23, 43.18, 10.69, 28.61,
127.41034722328186,-0.02, 0.21, 0.12, -43.82, -17.64, 14.77, 43.07, 14.05, 26.61,
127.52014780044556,-0.21, 0.26, -0.14, 47.61, -0.49, -21.67, 43.36, 14.84, 24.95,
127.6290237903595,2.36, 0.68, 0.77, 56.88, 11.84, -23.68, 42.83, 13.53, 28.00,
127.7382824420929,0.61, -0.37, 0.30, 60.42, 3.97, 47.36, 42.85, 8.22, 27.47,
127.84744167327881,-0.25, -0.27, -0.25, 29.79, -9.52, -13.12, 41.97, 7.62, 28.05,
127.95698714256287,2.49, 0.52, 0.69, -39.79, 49.87, -36.99, 43.26, 9.47, 25.79,
128.0663046836853,1.78, -0.11, 0.42, -106.20, -27.59, -36.93, 43.44, 12.02, 28.60,
128.17650389671326,-0.21, 0.02, -0.16, 24.96, -37.41, 17.58, 42.93, 14.78, 27.89,
128.28562879562378,0.34, 0.05, -0.01, 38.57, -18.55, 18.07, 42.44, 14.20, 28.20,
128.39620351791382,2.53, 0.90, 0.67, 83.50, 36.56, -6.90, 41.55, 12.23, 31.32,
128.5048840045929,0.48, -0.31, 0.14, 35.71, 5.13, 23.19, 41.13, 6.23, 29.53,
128.6140170097351,-0.28, -0.26, -0.17, 1.34, -41.26, -31.56, 41.75, 7.04, 28.32,
128.7236306667328,2.89, 0.53, 0.74, -51.03, 14.95, -41.26, 42.53, 10.52, 28.92,
128.83270907402039,1.35, 0.22, 0.32, -89.48, -36.38, -13.49, 42.26, 14.05, 31.04,
128.9431755542755,-0.28, -0.02, -0.21, 40.83, -17.15, 13.61, 43.24, 15.59, 26.95,
129.0535500049591,0.96, 0.32, 1.21, -39.67, 52.92, 36.07, 42.50, 14.01, 29.10,
129.16215205192566,2.25, 0.77, 0.62, 96.98, 25.88, 38.39, 41.67, 12.92, 31.21,
129.27168703079224,0.13, -0.10, -0.13, 29.11, 23.50, -12.94, 41.35, 7.12, 29.68,
129.38242650032043,0.03, -0.32, -0.17, -14.28, -22.16, -29.30, 42.19, 7.95, 27.91,
129.49242115020752,2.77, -0.30, 0.70, -77.88, -11.66, 7.32, 42.71, 13.16, 30.27,
129.6024239063263,0.72, 0.36, 0.14, -77.21, -58.84, -18.43, 43.36, 16.19, 29.82,
129.71221923828125,-0.37, 0.09, -0.20, 21.97, -13.49, -0.31, 42.77, 15.86, 26.11,
129.82162046432495,2.72, -0.22, 0.89, 56.64, 19.65, 27.65, 42.59, 15.54, 29.27,
129.9324779510498,1.67, 0.18, 0.37, 116.39, -14.71, 47.49, 41.83, 11.93, 31.30,
130.04253268241882,-0.29, -0.18, -0.11, 35.77, -11.96, -4.09, 41.54, 6.25, 30.05,
130.15239191055298,0.48, -0.15, 0.35, -52.61, -45.53, -27.40, 41.58, 8.29, 28.44,
130.26232767105103,2.61, -0.39, 0.74, -86.55, 36.62, -6.65, 42.32, 13.10, 31.36,
130.37137818336487,0.45, 0.28, -0.08, -42.91, -36.87, 15.81, 42.00, 16.80, 30.43,
130.48104548454285,-0.45, 0.26, -0.19, 25.57, -13.98, -3.72, 41.61, 15.03, 29.49,
130.59336495399475,2.18, -0.39, 0.73, -7.51, -2.75, 62.07, 42.38, 12.93, 29.65,
130.70264649391174,1.42, -0.03, 0.37, 98.63, -31.80, 45.23, 41.17, 8.59, 30.26,
130.81175303459167,-0.32, 0.15, -0.05, 10.25, 10.93, -21.06, 41.42, 5.49, 28.60,
130.9220073223114,0.95, -0.04, 1.00, -60.06, -0.18, -43.58, 41.74, 6.69, 28.97,
131.0320646762848,2.41, -0.48, 0.76, -95.95, 1.28, -22.52, 42.25, 11.36, 30.63,
131.14306902885437,-0.04, 0.22, -0.04, -54.08, 2.99, 14.34, 42.75, 14.97, 26.83,
131.25352120399475,-0.28, 0.26, -0.18, 43.33, 7.81, -18.74, 42.54, 14.38, 26.81,
131.36325311660767,2.62, 0.97, 0.72, 68.36, 35.58, -5.31, 42.47, 13.45, 29.82,
131.47307133674622,0.98, -0.14, 0.17, 105.77, -15.93, 40.16, 42.09, 7.82, 28.72,
131.58203125,-0.44, -0.06, -0.24, 25.51, 16.78, -31.07, 40.77, 4.14, 27.86,
131.69171690940857,1.97, -0.55, 0.40, -39.98, 15.14, -43.46, 42.27, 5.76, 26.76,
131.80142879486084,2.18, -0.22, 0.54, -142.76, -0.37, -25.09, 41.32, 12.32, 31.27,
131.91058564186096,0.05, 0.27, 0.04, -41.50, -43.40, 12.27, 41.67, 14.39, 28.59,
132.02144384384155,-0.17, 0.17, -0.23, 39.25, 4.88, 6.96, 41.93, 15.27, 25.93,
132.13233256340027,2.57, 0.75, 0.83, 68.48, 24.78, -10.01, 41.31, 13.20, 31.47,
132.24183917045593,0.88, -0.18, 0.22, 82.82, -22.03, 40.59, 41.17, 8.83, 30.49,
132.35083842277527,-0.33, -0.21, -0.16, 14.16, -26.55, -19.65, 40.72, 6.65, 28.06,
132.46113204956055,2.21, 0.20, 0.48, -29.17, 34.42, -58.29, 42.50, 8.79, 25.84,
132.57037615776062,1.86, -0.08, 0.59, -85.63, -42.05, -28.44, 42.11, 13.17, 28.47,
132.67955446243286,-0.32, 0.18, 0.09, -52.00, 67.08, 17.09, 41.76, 14.25, 26.12,
132.78895831108093,0.14, 0.07, -0.12, 54.50, -25.88, 11.35, 42.29, 12.94, 25.45,
132.8982892036438,2.59, 0.80, 0.78, 60.85, 27.95, 15.26, 41.77, 11.85, 28.03,
133.00665044784546,-0.04, -0.25, 0.30, 25.45, 33.81, 21.48, 41.39, 7.20, 27.37,
133.11652636528015,-0.33, -0.43, -0.20, -2.32, -36.56, -12.94, 40.33, 6.67, 28.42,
133.22683453559875,2.17, 0.17, 0.83, -57.92, 34.97, -24.11, 42.35, 11.06, 30.00,
133.33611822128296,1.19, 0.17, 0.32, -106.14, -47.00, -10.68, 42.29, 14.99, 27.10,
133.44590497016907,-0.48, 0.12, -0.21, 46.08, -29.72, -21.12, 42.29, 15.33, 25.56,
133.55603456497192,0.55, 0.01, 0.77, -18.31, 56.09, 48.34, 42.48, 14.66, 27.67,
133.6661319732666,2.67, 0.69, 0.70, 100.59, 31.13, 23.19, 41.56, 13.18, 29.99,
133.77503442764282,0.08, -0.24, -0.09, 56.88, 53.59, 4.82, 41.27, 5.62, 27.12,
133.88409662246704,-0.10, -0.31, -0.10, -49.74, -49.99, -15.44, 40.95, 6.01, 27.49,
133.99443912506104,2.03, -0.27, 0.83, -58.72, 18.74, -16.48, 42.74, 11.13, 28.75,
134.10429620742798,1.08, 0.22, 0.21, -91.19, -59.02, -19.23, 42.33, 14.06, 28.69,
134.21513080596924,-0.51, 0.08, -0.19, 51.76, -4.09, -32.35, 41.42, 15.16, 27.19,
134.32728624343872,1.45, 0.65, 2.17, 12.27, 90.09, 47.12, 42.14, 14.95, 26.39,
134.436217546463,2.05, 0.31, 0.44, 119.57, -30.70, 50.78, 41.33, 13.04, 30.74,
134.5473575592041,0.22, -0.24, -0.26, 23.01, 20.81, -27.77, 40.95, 6.80, 27.38,
134.65734934806824,0.20, -0.22, 0.09, -22.89, -48.95, -28.75, 42.46, 8.75, 27.82,
134.76607990264893,2.63, -0.30, 0.82, -96.01, 17.58, 2.08, 42.09, 13.10, 29.42,
134.87577629089355,0.74, 0.33, -0.03, -49.68, -53.04, -9.64, 42.49, 16.11, 26.94,
134.98557710647583,-0.30, 0.26, -0.10, 62.01, -29.91, -11.78, 41.86, 15.52, 26.65,
135.0947287082672,3.07, -0.61, -0.46, -43.82, 22.83, 37.35, 42.26, 14.50, 27.73,
135.2055287361145,1.29, 0.12, 0.40, 106.99, -36.44, 47.36, 41.52, 12.17, 30.11,
135.3160436153412,-0.37, 0.07, -0.08, 22.22, 28.87, -26.86, 41.49, 7.07, 29.70,
135.4269938468933,1.10, -0.05, 0.75, -124.82, 15.50, -39.92, 42.55, 10.34, 27.87,
135.53746032714844,2.26, -0.41, 0.73, -94.48, 0.43, -6.65, 41.49, 13.76, 31.67,
135.64748978614807,-0.13, 0.22, 0.09, -69.89, 48.16, 7.45, 42.32, 15.81, 27.56,
135.75843119621277,-0.33, 0.19, -0.19, 72.45, -7.39, -12.76, 41.96, 15.22, 26.15,
135.867858171463,2.58, 1.17, 0.73, 71.41, 12.02, -13.49, 42.76, 13.70, 29.17,
135.9776759147644,0.66, -0.24, 0.17, 88.50, -5.43, 37.17, 41.65, 5.60, 28.60,
136.088937997818,-0.47, -0.14, -0.30, 11.78, -14.65, -33.02, 40.23, 6.52, 29.98,
136.20090699195862,2.77, 0.39, 0.66, -66.71, 17.58, -58.53, 43.19, 9.70, 28.26,
136.311181306839,1.41, -0.08, 0.42, -116.64, -36.44, -13.98, 43.65, 12.18, 29.76,
136.4223132133484,-0.35, 0.03, -0.11, -4.70, 0.24, 6.53, 42.94, 14.65, 26.55,
136.53207182884216,0.31, 0.03, -0.15, -2.93, -37.90, 32.47, 43.03, 14.84, 26.81,
136.64185214042664,2.30, 0.94, 0.78, 86.79, 32.90, 39.49, 42.49, 11.61, 29.26,
136.75168466567993,0.14, -0.28, -0.06, 55.05, 40.83, 3.72, 42.16, 6.14, 28.87,
136.8617193698883,-0.03, -0.27, -0.06, -4.33, -33.69, -20.87, 41.70, 6.96, 28.15,
136.97389912605286,2.35, -0.01, 0.75, -77.88, 19.96, -7.51, 43.74, 10.67, 29.71,
137.0850043296814,1.20, 0.29, 0.07, -93.20, -72.39, -19.53, 42.85, 14.17, 29.16,
137.1964156627655,-0.39, 0.12, -0.21, 23.56, -19.23, -5.98, 42.70, 15.83, 26.06,
137.30712509155273,3.57, -0.29, 0.54, 52.25, 56.40, 32.78, 42.48, 15.44, 27.99,
137.41652870178223,1.46, 0.22, 0.39, 101.44, -19.84, 51.33, 42.04, 12.23, 30.15,
137.52601504325867,0.12, -0.03, -0.29, 37.66, -5.07, -14.59, 40.63, 7.78, 29.46,
137.63653922080994,0.41, -0.18, 0.43, -44.25, -30.09, -33.14, 42.15, 9.27, 28.82,
137.74632740020752,2.35, -0.62, 0.77, -101.56, 0.12, -14.47, 42.52, 13.01, 31.91,
137.855242729187,0.24, 0.38, -0.05, -25.15, -43.58, 24.54, 43.10, 16.71, 28.52,
137.9650902748108,-0.29, 0.22, -0.05, 66.71, -16.30, -3.11, 43.01, 14.72, 25.54,
138.07424879074097,2.48, 0.67, 0.65, 54.44, 49.26, -15.26, 42.83, 12.56, 30.18,
138.18256306648254,1.00, -0.14, 0.20, 100.77, -21.79, 43.09, 42.44, 6.65, 27.62,
138.2917869091034,-0.48, -0.09, -0.23, 3.17, -18.01, -56.21, 42.13, 5.99, 26.70,
138.40242099761963,2.62, 0.15, 0.40, -41.75, 57.80, -49.99, 44.09, 9.02, 25.85,
138.51146960258484,1.88, -0.19, 0.49, -107.18, -29.30, -28.93, 44.25, 11.25, 29.54,
138.6215558052063,-0.29, 0.13, -0.10, 1.28, -16.05, -15.20, 42.96, 14.83, 25.73,
138.73326325416565,0.23, -0.07, -0.18, 25.76, 2.62, 21.42, 43.24, 15.72, 26.34,
138.84266710281372,2.52, 0.95, 0.62, 71.35, 28.93, 4.88, 42.25, 14.31, 30.37,
138.95338368415833,-0.23, -0.49, 0.06, 18.25, 27.34, 18.92, 41.83, 7.14, 27.82,
139.06305050849915,-0.03, -0.28, -0.11, 10.62, -36.62, -36.38, 42.32, 7.82, 28.60,
139.17299699783325,2.19, -0.24, 0.68, -55.18, 23.56, -23.38, 43.47, 12.70, 29.13,
139.28348445892334,1.02, 0.16, 0.09, -100.83, -33.94, -14.34, 43.13, 16.98, 30.00,
139.39393973350525,-0.31, 0.06, -0.34, 42.66, -31.74, 1.22, 42.40, 17.60, 27.97,
139.50418162345886,1.36, 0.52, 1.46, -45.17, 98.45, 69.03, 42.14, 15.77, 28.50,
139.61435651779175,1.91, 0.32, 0.40, 126.77, -1.71, 50.54, 41.93, 11.40, 31.05,
139.72381711006165,0.08, -0.12, -0.21, 46.75, -22.83, -9.95, 40.22, 6.18, 29.87,
139.8342456817627,0.16, -0.30, 0.06, -25.57, -44.01, -38.94, 41.56, 6.91, 28.61,
139.94428706169128,2.41, -0.69, 0.83, -102.78, 1.40, 0.79, 42.33, 11.79, 29.61,
140.05364727973938,0.25, 0.47, -0.03, -53.04, -53.16, -0.85, 42.92, 15.81, 26.51,
140.16360664367676,-0.38, 0.23, -0.15, 47.79, 6.84, -5.74, 42.40, 14.86, 27.01,
140.27385592460632,2.28, 0.64, 0.80, 49.74, 53.41, 4.58, 41.81, 13.24, 29.70,
140.38420176506042,0.72, -0.30, 0.11, 99.61, -13.12, 40.95, 41.75, 8.42, 29.21,
140.4932463169098,-0.37, -0.16, -0.26, 19.41, -9.09, -48.77, 40.82, 5.92, 27.65,
140.60281348228455,3.31, 0.16, 0.16, -36.32, 44.13, -58.35, 42.16, 9.42, 26.82,
140.71212911605835,1.52, -0.04, 0.35, -112.18, -35.03, -30.52, 42.79, 11.21, 29.65,
140.82176303863525,-0.17, 0.15, -0.26, 21.61, -3.78, 9.95, 41.98, 15.64, 27.36,
140.93102145195007,0.72, -0.30, 0.03, 5.98, -6.65, 18.37, 42.18, 15.03, 27.64,
141.04126358032227,2.14, 0.73, 0.57, 111.45, 34.55, 16.24, 42.32, 12.37, 30.88,
141.14954137802124,-0.38, -0.25, 0.28, 24.29, 88.81, 17.76, 41.50, 5.90, 29.68,
141.2592489719391,-0.29, -0.32, 0.02, 6.16, -56.46, -28.50, 41.85, 6.93, 28.26,
141.36936163902283,2.70, -0.30, 0.80, -65.73, 44.56, -15.93, 42.66, 11.95, 30.71,
141.47882795333862,0.48, 0.19, 0.06, -93.87, -6.35, -30.33, 41.74, 16.61, 29.15,
141.5881736278534,-0.44, 0.24, -0.21, 17.46, -9.95, 8.67, 41.14, 18.63, 28.56,
141.69778895378113,4.00, 0.25, -0.03, 54.44, 73.43, 41.50, 41.42, 16.02, 28.96,
141.80672788619995,1.74, 0.36, 0.28, 129.88, -7.39, 45.41, 41.10, 11.27, 31.84,
141.9163258075714,-0.18, -0.06, -0.25, 63.72, -12.02, -10.31, 40.39, 5.71, 29.98,
142.02456283569336,0.95, -0.28, 0.84, -114.50, -13.12, -39.49, 41.78, 6.92, 30.42,
142.13383626937866,2.40, -0.80, 0.68, -129.27, 6.29, -8.73, 42.24, 12.35, 31.41,
142.24299788475037,0.05, 0.18, -0.13, -40.89, -9.09, 1.71, 41.94, 17.00, 30.25,
