Time (s),Accel_X,Accel_Y,Accel_Z,Gyro_X,Gyro_Y,Gyro_Z,Mag_X,Mag_Y,Mag_Z
0.0,0.98, 0.04, 0.18, -0.49, -0.43, -1.28, 36.73, 37.11, 18.30,
0.001965045928955078,0.99, 0.05, 0.18, -1.89, 0.55, -0.73, 36.28, 37.21, 18.54,
0.002963542938232422,0.98, 0.05, 0.18, -2.81, 1.46, -0.73, 36.36, 36.85, 19.02,
0.002963542938232422,0.98, 0.05, 0.17, -1.95, 2.26, -0.37, 36.89, 37.26, 18.95,
0.004471540451049805,0.99, 0.05, 0.17, -0.73, 3.36, -0.67, 36.41, 37.44, 18.84,
0.00548243522644043,0.99, 0.06, 0.16, -1.10, 4.27, -0.92, 35.74, 37.37, 20.09,
0.006479978561401367,0.98, 0.06, 0.14, 2.81, -2.69, 0.61, 36.08, 37.26, 18.86,
0.007479429244995117,1.00, 0.04, 0.15, -2.32, 1.71, 0.18, 36.25, 36.82, 19.98,
0.00848078727722168,0.97, 0.06, 0.14, -2.69, -5.37, -1.10, 36.32, 36.74, 18.98,
0.009479999542236328,0.99, 0.04, 0.15, -3.48, 2.56, -0.37, 37.00, 36.91, 19.46,
0.009479999542236328,1.01, 0.05, 0.17, -1.89, 0.06, -1.59, 36.76, 36.95, 18.84,
0.010480403900146484,0.96, 0.03, 0.15, 0.98, -0.79, -3.91, 36.25, 36.96, 20.15,
0.011500358581542969,0.95, 0.10, 0.12, -3.36, 15.75, -0.06, 36.41, 36.74, 19.95,
0.011500358581542969,1.04, 0.07, 0.17, -15.08, -6.53, -5.00, 36.01, 37.19, 20.21,
0.012580156326293945,0.96, 0.16, 0.15, -30.33, 3.66, -7.75, 35.93, 37.74, 17.53,
0.013583660125732422,1.11, 0.03, 0.17, -30.27, -7.08, -9.09, 36.21, 38.53, 17.69,
0.014573335647583008,0.93, 0.05, 0.11, -31.49, 3.36, -11.66, 35.73, 39.61, 15.97,
0.015578269958496094,1.00, -0.03, 0.15, -35.95, -0.55, -8.73, 35.27, 40.89, 13.82,
0.01657414436340332,0.96, -0.05, 0.11, -46.88, 7.57, -15.01, 35.18, 41.26, 11.07,
0.01657414436340332,1.01, -0.03, 0.10, -50.54, 11.17, -8.91, 34.74, 41.74, 8.68,
0.017572641372680664,1.05, -0.15, 0.04, -48.03, 7.81, -9.28, 34.45, 41.33, 6.64,
0.018578529357910156,0.98, -0.03, 0.07, -11.66, -6.35, -7.57, 33.94, 41.97, 4.69,
0.019574880599975586,0.98, -0.13, 0.05, 14.83, -15.99, -7.87, 32.59, 40.89, 4.38,
0.020576953887939453,0.88, -0.10, 0.12, 3.54, -8.97, -1.83, 32.21, 42.57, 4.33,
0.02157735824584961,1.06, -0.04, 0.13, 18.92, -3.11, -3.54, 32.36, 42.60, 3.81,
0.022578001022338867,0.96, -0.15, 0.13, -3.05, 0.31, -5.86, 32.34, 43.47, 4.68,
0.022578001022338867,1.00, -0.11, 0.12, -5.19, -3.60, -2.62, 31.70, 43.68, 4.33,
0.023576021194458008,1.00, -0.09, 0.15, 2.32, -3.48, -3.05, 31.47, 43.41, 3.81,
0.02457714080810547,0.99, -0.11, 0.14, 9.09, -3.91, 1.59, 31.59, 44.49, 4.54,
0.025815486907958984,0.99, -0.15, 0.13, -3.36, -8.36, 0.79, 31.52, 44.18, 4.31,
0.02647995948791504,0.97, -0.10, 0.18, -5.19, -5.74, 5.86, 32.68, 43.81, 4.10,
0.02747821807861328,1.00, -0.06, 0.21, 1.65, -2.87, 8.36, 32.39, 43.08, 3.75,
0.028478145599365234,0.97, -0.06, 0.18, 2.69, -0.49, 2.32, 32.76, 43.64, 3.67,
0.0294797420501709,0.99, -0.06, 0.18, 1.34, 1.10, 0.12, 32.97, 43.42, 4.71,
0.03047943115234375,0.99, -0.06, 0.19, 0.12, 0.18, 1.04, 33.47, 42.77, 4.88,
0.03148055076599121,0.99, -0.06, 0.17, -1.10, 1.59, 0.12, 33.48, 43.40, 4.26,
0.03248000144958496,0.99, -0.06, 0.17, -0.31, 1.95, -0.55, 33.52, 42.55, 5.16,
0.034481048583984375,0.98, -0.06, 0.17, 0.31, 1.40, -1.89, 33.28, 42.38, 4.16,
0.034481048583984375,0.99, -0.06, 0.16, 0.73, 0.92, -1.71, 33.18, 43.12, 4.48,
0.03699803352355957,0.98, -0.07, 0.16, 0.37, 0.73, -1.28, 32.60, 42.14, 4.11,
0.037998199462890625,0.98, -0.07, 0.16, -0.61, -0.31, -0.55, 33.07, 41.96, 3.48,
0.038997650146484375,1.00, -0.07, 0.16, -0.06, -1.65, -0.24, 33.34, 42.81, 4.33,
0.04126286506652832,0.99, -0.07, 0.16, -1.10, 0.00, -0.73, 33.68, 42.00, 4.44,
0.043007612228393555,0.95, -0.08, 0.16, -2.81, 5.19, 0.61, 33.20, 42.43, 3.70,
0.04410696029663086,0.96, -0.13, 0.11, -4.21, 13.98, -2.38, 33.25, 42.00, 2.87,
0.04509544372558594,1.06, -0.09, 0.13, 8.06, 4.94, 3.42, 33.30, 41.48, 4.76,
0.04609560966491699,0.96, -0.10, 0.07, 32.71, 1.95, 21.30, 33.59, 41.46, 6.87,
0.04709815979003906,1.00, -0.17, 0.06, 45.65, -8.61, 15.87, 34.70, 40.12, 9.17,
0.04810166358947754,1.00, -0.08, 0.14, 18.86, 1.28, 8.61, 34.40, 40.25, 12.46,
0.04910159111022949,0.96, 0.13, 0.10, 18.25, 8.12, 15.56, 34.89, 38.83, 13.95,
0.05009269714355469,1.00, 0.12, 0.07, 51.57, 10.38, 19.90, 35.55, 37.27, 14.83,
0.051697492599487305,0.96, 0.22, 0.06, 54.50, 2.32, 17.21, 36.15, 35.38, 19.38,
0.05380678176879883,1.02, 0.16, 0.10, 39.18, 6.10, 11.47, 36.40, 34.34, 22.29,
0.05480456352233887,0.94, 0.17, 0.12, 10.01, 5.68, 7.57, 36.19, 33.22, 24.39,
0.05580878257751465,1.03, 0.17, 0.08, -16.66, -8.42, -1.65, 36.85, 32.65, 23.78,
0.057711124420166016,0.98, 0.23, 0.03, -12.02, 11.41, -10.07, 36.08, 33.81, 23.17,
0.05971479415893555,0.99, 0.12, 0.03, 5.25, 14.16, 9.58, 36.65, 32.89, 24.02,
0.06071162223815918,1.03, 0.11, 0.03, -2.08, 0.61, -2.44, 36.58, 33.17, 24.29,
0.06229734420776367,0.94, 0.16, -0.00, -17.58, -7.32, -4.39, 36.36, 32.81, 23.45,
0.06442666053771973,0.98, 0.14, 0.02, -14.89, 12.51, 5.86, 36.13, 33.15, 24.32,
0.06541752815246582,0.98, 0.11, 0.07, -5.98, 18.55, 2.26, 36.12, 33.15, 24.16,
0.06641817092895508,1.01, 0.16, -0.05, -6.84, 11.47, -4.33, 35.83, 33.68, 25.26,
0.0683739185333252,0.96, 0.11, -0.07, -11.60, 13.73, -0.31, 35.44, 33.74, 25.33,
0.06942033767700195,1.00, 0.16, -0.13, -13.12, 22.52, 5.49, 34.13, 34.07, 27.56,
0.07142472267150879,0.99, 0.16, -0.21, -8.79, 27.40, 0.31, 34.01, 33.94, 27.83,
0.0733194351196289,0.99, 0.17, -0.25, -5.49, 14.95, 4.58, 33.84, 34.14, 28.87,
0.07431769371032715,0.97, 0.17, -0.27, -4.58, 1.10, 1.28, 33.90, 34.29, 28.99,
0.07532048225402832,0.97, 0.18, -0.30, -3.05, 11.54, 0.31, 33.04, 34.33, 29.50,
0.07631850242614746,0.97, 0.16, -0.30, -1.83, 4.39, -1.71, 33.28, 33.81, 30.70,
0.07831811904907227,0.96, 0.16, -0.32, -3.78, 6.16, 0.18, 32.80, 34.31, 31.47,
0.07931804656982422,0.95, 0.15, -0.33, 0.79, -2.32, -3.72, 32.82, 34.74, 30.64,
0.08031821250915527,0.98, 0.15, -0.30, 5.68, -9.70, -0.37, 32.63, 34.34, 31.43,
0.08131790161132812,0.98, 0.17, -0.31, 0.06, -13.67, -5.43, 33.01, 33.98, 28.80,
0.08331799507141113,0.97, 0.13, -0.25, -6.53, -16.30, -0.31, 32.73, 35.11, 28.55,
0.08431839942932129,0.99, 0.15, -0.22, -1.28, -20.87, -0.67, 33.36, 34.63, 27.37,
0.08531785011291504,0.98, 0.15, -0.18, 0.12, -17.52, -0.18, 34.38, 35.07, 26.71,
0.08731698989868164,0.98, 0.16, -0.15, 4.52, -10.74, 2.14, 35.38, 34.44, 23.85,
0.0883171558380127,0.97, 0.17, -0.13, 12.15, -6.96, 4.21, 35.18, 34.12, 24.67,
0.08931660652160645,0.95, 0.11, -0.09, 6.90, -4.88, -5.31, 35.96, 33.64, 25.50,
0.0903172492980957,1.01, 0.16, -0.04, 16.42, -7.87, 10.44, 35.56, 33.81, 24.11,
0.09131693840026855,0.95, 0.19, -0.04, 18.31, -2.20, -5.92, 35.56, 32.69, 24.38,
0.0923166275024414,1.01, 0.16, -0.04, 26.55, 0.24, 0.00, 36.12, 33.14, 25.51,
0.0923166275024414,1.00, 0.12, -0.02, 16.42, -0.43, -6.04, 36.16, 32.26, 26.17,
0.09331655502319336,1.01, 0.12, -0.04, -4.21, -2.81, -3.91, 36.36, 32.87, 26.42,
0.09431600570678711,1.02, 0.10, -0.01, -6.35, -21.48, 2.81, 36.24, 33.15, 25.56,
0.09531784057617188,0.99, 0.12, -0.00, -7.57, -6.65, -1.10, 36.52, 33.01, 25.06,
0.09631586074829102,0.96, 0.12, 0.02, -5.62, -8.30, 0.43, 36.95, 33.29, 24.28,
0.09631586074829102,0.97, 0.18, 0.02, 9.46, -0.24, -2.32, 36.28, 33.72, 24.06,
0.09731578826904297,1.09, 0.20, 0.05, 2.01, 1.53, -5.86, 35.91, 33.29, 24.24,
0.09731578826904297,0.96, 0.12, 0.09, -18.68, -19.35, -15.93, 36.24, 34.41, 24.82,
0.09831619262695312,1.03, 0.17, 0.10, -44.49, -12.70, -15.08, 35.94, 36.21, 22.50,
0.09831619262695312,0.92, 0.07, 0.05, -42.24, -9.28, -16.48, 35.16, 37.71, 18.93,
0.09991788864135742,0.99, 0.05, 0.10, -38.21, -2.14, -13.12, 34.75, 39.47, 16.16,
0.10082554817199707,1.00, -0.03, 0.11, -59.88, 2.75, -13.00, 33.78, 40.31, 14.07,
0.10082554817199707,0.97, -0.09, 0.00, -68.36, 12.94, -15.81, 33.83, 40.60, 12.05,
0.10182523727416992,1.12, -0.07, -0.00, -45.23, 5.25, 1.65, 33.53, 40.48, 8.11,
0.10282492637634277,0.87, -0.08, 0.01, -1.40, -11.72, -0.67, 33.84, 39.20, 6.36,
0.10282492637634277,1.15, -0.02, 0.10, -5.80, -8.61, -10.74, 32.87, 39.72, 6.16,
0.10382485389709473,0.86, -0.07, 0.03, 2.08, -5.80, 5.25, 32.30, 40.21, 5.83,
0.10482597351074219,1.04, -0.05, 0.06, -5.74, -2.81, 7.32, 32.95, 39.42, 5.59,
0.10582685470581055,0.99, -0.01, 0.07, -12.76, -2.50, -1.46, 33.64, 38.62, 5.41,
0.10582685470581055,0.99, -0.02, 0.08, -2.14, -1.28, -0.85, 33.91, 38.35, 5.04,
0.10682535171508789,1.00, -0.02, 0.08, 2.26, -1.40, -5.25, 32.68, 38.34, 5.76,
0.10782504081726074,1.00, -0.02, 0.08, 6.59, -0.67, -2.81, 32.73, 38.88, 4.49,
0.10782504081726074,1.00, -0.03, 0.08, 3.11, 0.37, -1.83, 32.96, 39.39, 5.14,
0.1088252067565918,1.00, -0.05, 0.11, -1.53, 3.05, -1.53, 33.11, 39.16, 6.45,
0.1088252067565918,1.01, -0.02, 0.06, -9.09, -1.77, -1.04, 33.03, 39.56, 4.65,
0.11040854454040527,1.01, -0.02, 0.07, -8.42, -1.71, 2.69, 32.90, 39.53, 4.66,
0.11040854454040527,1.01, -0.05, 0.08, -6.47, -4.64, 4.76, 33.44, 38.61, 3.26,
0.11133289337158203,0.99, 0.03, 0.09, -11.23, -8.42, -2.26, 33.09, 37.93, 4.41,
0.11233258247375488,0.99, -0.00, 0.12, -2.75, -5.92, 1.95, 32.60, 37.76, 3.80,
0.11233258247375488,0.98, -0.00, 0.12, -0.37, -3.05, 1.04, 32.47, 38.01, 2.66,
0.11333298683166504,0.99, 0.00, 0.13, -4.58, -0.06, 0.49, 33.03, 38.02, 2.87,
0.11333298683166504,1.00, 0.01, 0.13, -4.52, 1.10, 0.37, 33.02, 37.40, 2.59,
0.11433243751525879,0.99, 0.01, 0.12, -4.03, 2.01, -1.71, 33.18, 37.51, 1.59,
0.11533260345458984,1.00, 0.01, 0.11, -3.91, 3.23, -2.26, 33.36, 37.52, 3.03,
0.11533260345458984,0.99, 0.01, 0.10, 1.89, 3.42, -1.65, 32.87, 37.71, 2.70,
0.1163322925567627,1.00, -0.00, 0.08, 3.72, -2.14, -0.49, 33.81, 37.96, 3.32,
0.1163322925567627,0.99, -0.02, 0.11, 4.46, -7.93, 3.11, 33.08, 37.34, 2.75,
0.11733222007751465,1.00, 0.05, 0.11, 10.62, -2.01, -0.85, 32.76, 38.07, 2.32,
0.1183323860168457,1.00, 0.02, 0.10, 14.77, -2.99, -2.56, 33.01, 38.34, 2.78,
0.1183323860168457,0.99, -0.01, 0.13, 10.50, -0.79, 0.24, 33.06, 39.10, 3.19,
0.11933302879333496,0.99, -0.02, 0.13, -0.24, -1.10, -0.12, 33.37, 39.06, 3.05,
0.11933302879333496,0.99, 0.01, 0.14, -3.72, 1.10, 1.77, 33.23, 38.96, 3.33,
0.12083625793457031,0.98, -0.02, 0.12, -3.42, 4.09, 2.75, 33.26, 38.48, 4.53,
0.12083625793457031,1.05, -0.01, 0.12, 5.92, 6.96, 4.39, 33.94, 38.27, 4.93,
0.1218404769897461,0.98, -0.00, 0.12, 24.48, -3.60, 6.35, 34.09, 38.39, 4.08,
0.12284040451049805,1.01, -0.03, 0.11, 46.69, -4.33, 1.83, 34.12, 38.88, 6.87,
0.12284040451049805,1.02, -0.11, 0.14, 59.20, -10.80, 5.80, 34.17, 39.62, 8.36,
0.12384033203125,0.90, -0.10, 0.11, 44.19, -4.03, 9.34, 34.20, 40.03, 12.57,
0.12484025955200195,1.00, 0.00, 0.14, 59.45, -14.65, 16.72, 33.90, 39.56, 12.52,
0.12484025955200195,0.95, 0.14, 0.23, 67.32, -11.84, 26.25, 35.28, 37.30, 17.85,
0.125840425491333,1.01, 0.17, 0.29, 76.54, -8.61, 17.94, 36.38, 35.13, 18.99,
0.125840425491333,0.95, 0.14, 0.32, 66.22, -11.29, 13.67, 36.85, 33.51, 22.07,
0.12684011459350586,0.91, 0.12, 0.28, 61.83, 12.51, 18.68, 37.13, 30.75, 24.29,
0.1278400421142578,1.01, 0.10, 0.26, 40.53, 16.05, 18.43, 37.99, 28.64, 26.56,
0.12884020805358887,0.95, 0.04, 0.20, 24.35, 13.06, 6.84, 38.11, 26.26, 29.08,
0.12884020805358887,1.00, 0.03, 0.18, 17.58, 19.29, 1.22, 37.54, 24.26, 31.87,
0.12984013557434082,1.00, 0.07, 0.14, 7.08, -0.85, -9.03, 37.95, 24.60, 32.57,
0.13084030151367188,1.02, 0.09, 0.11, 5.62, 10.80, -7.45, 37.67, 25.54, 31.74,
0.13084030151367188,0.98, -0.01, 0.10, -2.20, 11.47, -3.91, 37.59, 25.09, 32.69,
0.13184022903442383,0.98, 0.04, 0.06, -1.04, -1.46, -1.04, 37.05, 26.11, 32.91,
0.13283991813659668,1.01, -0.03, 0.01, -0.98, 3.97, 8.61, 37.21, 25.44, 34.69,
0.13283991813659668,1.02, -0.04, 0.02, -7.63, -6.53, 1.65, 37.38, 25.95, 33.81,
0.13383984565734863,1.04, -0.03, -0.00, 1.77, 1.65, -5.74, 36.77, 25.73, 35.66,
0.1348400115966797,0.92, 0.01, 0.04, 6.59, -2.08, -0.98, 37.18, 26.00, 32.76,
0.1348400115966797,1.06, 0.02, 0.07, -7.51, 0.98, -2.20, 36.28, 25.90, 34.68,
0.13584065437316895,0.94, 0.08, 0.03, -3.36, -2.69, -0.85, 35.88, 26.40, 33.47,
0.1368408203125,0.94, 0.08, 0.09, 26.31, -10.44, 16.05, 36.55, 25.76, 33.45,
0.1368408203125,1.12, -0.00, 0.17, -6.65, -17.27, -6.53, 36.78, 23.75, 33.96,
0.13784050941467285,0.96, 0.02, 0.21, -13.12, -19.59, -15.32, 36.69, 25.12, 31.97,
0.13784050941467285,0.96, 0.01, 0.20, -11.17, -8.85, -6.47, 37.33, 27.14, 30.09,
0.1388404369354248,0.97, 0.03, 0.20, -4.03, -2.26, 0.85, 37.33, 27.28, 29.90,
0.13984060287475586,0.98, 0.01, 0.24, 7.20, -12.76, -0.37, 37.55, 27.34, 29.69,
0.13984060287475586,0.97, 0.00, 0.26, -3.72, -5.25, -0.92, 37.98, 26.54, 28.65,
0.1408402919769287,0.96, 0.01, 0.27, -0.18, 0.98, -0.98, 37.95, 26.81, 29.11,
0.14184021949768066,0.97, 0.00, 0.24, -2.62, 2.08, -1.83, 38.13, 27.09, 29.38,
0.14184021949768066,0.97, 0.02, 0.24, -5.62, 6.84, -0.98, 37.48, 26.95, 29.69,
0.14284038543701172,0.98, 0.02, 0.22, -3.78, -0.37, -0.37, 37.78, 27.39, 30.14,
0.14284038543701172,0.98, 0.02, 0.20, -3.23, 13.24, 0.55, 37.22, 27.22, 30.19,
0.14384007453918457,0.99, 0.00, 0.18, -0.12, 1.95, -0.85, 37.46, 27.67, 29.61,
0.14484000205993652,0.98, 0.01, 0.20, -2.62, 5.37, -0.37, 37.23, 27.27, 29.77,
0.14484000205993652,0.97, -0.01, 0.22, -10.50, 10.25, -4.39, 37.29, 27.27, 30.48,
0.14584016799926758,0.94, -0.00, 0.19, -18.13, 17.15, -4.82, 35.83, 28.59, 30.36,
0.14684033393859863,1.03, 0.02, 0.20, -16.85, 13.00, -1.89, 36.22, 29.24, 30.73,
0.14684033393859863,0.94, 0.05, 0.15, -30.52, 29.05, -1.04, 35.61, 30.04, 31.57,
0.1478440761566162,1.02, 0.08, 0.05, -41.87, 8.97, -3.42, 34.73, 30.93, 31.54,
0.14884400367736816,1.07, 0.03, -0.09, -64.03, 26.92, -2.87, 34.72, 32.98, 29.94,
0.14884400367736816,0.93, 0.00, -0.07, -63.60, -6.23, 2.14, 34.14, 34.94, 29.85,
0.14984440803527832,0.93, 0.01, -0.25, -61.65, -33.08, 2.32, 34.52, 36.80, 24.19,
0.14984440803527832,0.96, -0.08, 0.05, -36.62, -29.85, -26.67, 35.14, 38.18, 21.94,
0.15099143981933594,1.09, -0.13, 0.09, -51.57, -13.37, -35.52, 33.95, 41.33, 19.41,
0.15194153785705566,1.01, -0.19, 0.05, -48.40, 17.27, -28.75, 31.75, 43.47, 16.06,
0.1529402732849121,1.00, -0.22, 0.03, -57.07, 15.26, -7.20, 31.26, 44.21, 13.90,
0.15395069122314453,1.17, -0.11, 0.12, -44.62, -5.00, -2.69, 30.49, 44.12, 11.21,
0.15595245361328125,0.94, -0.09, -0.05, -43.03, -0.12, 7.45, 29.61, 43.32, 8.12,
0.1569507122039795,1.05, -0.08, 0.05, -11.05, 15.50, 22.77, 31.12, 41.16, 9.42,
0.15794968605041504,0.96, -0.06, -0.05, 11.90, 15.44, 6.16, 31.88, 40.98, 8.11,
0.15895891189575195,1.01, -0.05, -0.02, 10.44, 3.91, 6.77, 32.64, 40.70, 10.33,
0.15996193885803223,0.99, -0.04, -0.03, 4.21, -2.81, 4.39, 32.85, 39.84, 10.68,
0.1615767478942871,1.01, -0.02, -0.02, 2.44, -2.56, 4.94, 33.25, 39.61, 11.67,
0.16330981254577637,0.94, 0.01, -0.05, -6.59, 1.34, 4.27, 33.72, 39.00, 10.97,
0.16442179679870605,1.12, 0.06, -0.04, -26.25, 7.75, 10.13, 33.65, 38.10, 11.56,
0.16542768478393555,0.95, 0.05, -0.01, -49.80, 0.43, 10.19, 34.38, 37.23, 9.20,
0.1664273738861084,0.95, 0.06, -0.05, -69.34, 0.43, 9.77, 34.03, 35.03, 7.68,
0.1674203872680664,0.97, 0.13, -0.15, -75.38, 2.26, 3.97, 35.21, 32.95, 4.75,
0.16842174530029297,1.00, 0.04, -0.14, -69.64, 4.82, -5.98, 35.18, 30.51, 1.16,
0.16842174530029297,1.02, 0.05, -0.12, -50.23, 1.83, -3.11, 35.24, 28.52, 0.28,
0.16931772232055664,1.00, -0.03, -0.15, -44.49, -6.53, -7.02, 35.49, 26.57, -0.09,
0.17041993141174316,0.97, -0.04, -0.12, -33.02, -0.73, -5.86, 35.07, 25.59, -1.46,
0.17041993141174316,1.04, -0.05, -0.13, -26.79, -8.12, -10.19, 35.05, 25.13, -2.43,
0.17141389846801758,1.04, -0.07, -0.07, -22.83, -13.98, -9.70, 34.41, 25.16, -3.32,
0.1723325252532959,1.00, -0.09, -0.02, -19.90, -8.61, -7.87, 33.34, 24.29, -4.42,
0.173370361328125,1.00, -0.09, 0.00, -9.52, -6.47, 2.32, 33.75, 24.34, -5.29,
0.1743166446685791,1.00, -0.07, -0.02, -1.59, -6.35, -2.56, 33.50, 23.85, -5.77,
0.1754133701324463,1.00, -0.08, -0.01, 9.28, -5.37, -2.69, 33.00, 24.05, -6.12,
0.1754133701324463,1.00, -0.11, -0.00, 11.41, -1.95, -3.23, 32.91, 24.32, -6.03,
0.17641210556030273,1.00, -0.13, 0.01, 6.59, -1.71, -3.60, 32.69, 24.87, -6.40,
0.17742037773132324,1.00, -0.13, 0.00, 4.88, -2.26, -4.21, 32.71, 25.18, -6.34,
0.17742037773132324,0.93, -0.14, 0.02, -2.14, 1.46, -3.23, 32.24, 26.05, -5.96,
0.17841076850891113,1.02, -0.14, 0.04, -1.77, -1.40, -2.26, 32.41, 26.21, -6.80,
0.1794114112854004,0.96, -0.13, 0.04, -8.73, -26.61, 0.00, 30.55, 25.56, -7.59,
0.1794114112854004,0.98, -0.13, 0.11, -3.78, 0.37, -2.50, 29.92, 25.50, -10.05,
0.18043279647827148,0.99, -0.13, 0.14, -3.30, -14.59, 0.49, 29.92, 24.96, -9.31,
0.1814110279083252,0.99, -0.13, 0.17, -1.10, -14.16, 1.46, 28.55, 25.48, -11.30,
0.1814110279083252,0.96, -0.12, 0.20, -4.52, -26.25, 2.99, 27.47, 25.29, -11.22,
0.18295693397521973,0.97, -0.11, 0.25, -3.23, -17.09, 4.39, 24.69, 24.50, -12.51,
0.18341755867004395,0.95, -0.10, 0.32, -3.17, -26.31, 5.19, 22.42, 24.72, -14.42,
0.1844191551208496,0.89, -0.08, 0.31, 2.14, 20.51, -0.31, 22.42, 24.60, -14.66,
0.18541455268859863,0.91, -0.11, 0.33, 10.80, 36.93, -0.85, 24.84, 24.10, -13.05,
0.18641185760498047,1.00, -0.12, 0.21, 6.10, 60.49, -1.10, 27.95, 24.21, -11.08,
0.1884164810180664,0.97, -0.08, 0.14, 8.00, 56.21, -0.79, 30.71, 24.07, -7.31,
0.18941187858581543,1.01, -0.06, -0.06, 11.60, 41.02, 6.47, 33.37, 24.45, -6.32,
0.1904134750366211,1.01, -0.08, -0.09, 26.25, 8.00, 1.71, 34.33, 25.51, -3.30,
0.19141364097595215,1.04, -0.07, -0.05, 44.01, 5.00, 0.49, 34.46, 26.25, -1.20,
0.19302725791931152,0.96, -0.07, -0.14, 42.05, -3.48, 6.23, 34.30, 28.22, 0.68,
0.19413304328918457,0.93, -0.10, -0.21, 43.76, 31.74, 7.02, 34.69, 29.11, 1.89,
0.19513511657714844,1.05, -0.09, -0.17, 69.95, -2.01, 11.84, 35.67, 30.41, 5.53,
0.1960458755493164,1.04, 0.05, -0.14, 60.00, 5.13, 24.41, 36.23, 30.86, 7.59,
0.19713544845581055,0.93, 0.09, -0.15, 43.82, -67.32, 7.39, 36.25, 30.65, 9.44,
0.1981339454650879,0.97, 0.21, -0.20, 40.65, 27.47, 11.90, 36.66, 30.90, 8.98,
0.19913768768310547,0.95, 0.29, -0.26, 33.20, 28.02, -3.17, 36.46, 31.09, 13.81,
0.19913768768310547,1.00, 0.22, -0.07, 39.67, 4.39, -6.10, 36.13, 31.79, 16.59,
0.2001352310180664,0.94, 0.14, -0.17, 33.57, -12.02, -13.24, 35.46, 33.31, 17.25,
0.20113539695739746,0.98, 0.15, -0.11, 39.98, -0.73, -15.44, 34.85, 34.88, 18.74,
0.20113539695739746,1.03, 0.11, -0.08, 15.01, -5.74, -1.16, 33.96, 34.96, 18.80,
0.2021329402923584,0.97, 0.12, -0.06, 3.30, -8.54, -7.81, 33.25, 35.57, 19.78,
0.20313382148742676,0.98, 0.18, -0.08, 17.58, 1.46, 3.42, 33.94, 35.93, 19.15,
0.20313382148742676,1.01, 0.15, -0.05, 21.97, 2.81, 0.00, 33.22, 35.41, 19.87,
0.20413661003112793,0.98, 0.13, -0.05, 14.28, 6.35, -2.87, 33.41, 35.75, 20.84,
0.20512700080871582,0.98, 0.13, -0.06, 13.92, 4.88, -0.92, 33.29, 35.38, 21.52,
0.20512700080871582,0.99, 0.11, -0.07, 9.83, 5.13, -3.78, 33.15, 35.02, 23.11,
0.20608091354370117,1.01, 0.10, -0.09, 5.86, 3.85, -3.72, 33.09, 35.45, 23.97,
0.20668244361877441,1.00, 0.11, -0.10, 2.56, 3.60, -4.82, 33.33, 35.44, 24.08,
0.20779037475585938,1.01, 0.10, -0.10, 2.08, 1.28, -2.26, 32.81, 34.88, 24.33,
0.20779037475585938,0.99, 0.10, -0.10, 5.07, -2.62, -2.75, 33.41, 35.49, 25.20,
0.2087545394897461,1.01, 0.11, -0.09, 13.00, -2.99, 0.67, 32.98, 34.77, 25.96,
0.2087545394897461,1.00, 0.10, -0.09, 13.31, -2.08, 1.22, 33.53, 35.00, 26.45,
0.209794282913208,1.00, 0.08, -0.08, 8.24, -1.95, -1.95, 33.23, 34.56, 25.95,
0.21079349517822266,1.00, 0.11, -0.07, 3.30, -5.31, -3.05, 33.44, 34.81, 26.15,
0.21079349517822266,1.00, 0.09, -0.07, 0.12, -4.76, -1.53, 33.13, 35.08, 26.14,
0.2117619514465332,1.00, 0.09, -0.06, -3.30, -2.14, -0.37, 33.06, 34.83, 24.73,
0.21268987655639648,1.00, 0.10, -0.05, -4.76, -1.71, 0.61, 33.62, 34.72, 25.01,
0.21268987655639648,1.01, 0.11, -0.05, -4.21, -0.55, 0.61, 33.69, 34.38, 24.19,
0.2146909236907959,0.99, 0.10, -0.05, -2.81, -1.04, 0.67, 33.75, 34.91, 25.67,
0.21579289436340332,1.00, 0.11, -0.05, -2.08, -0.61, 1.28, 33.52, 34.52, 24.26,
0.2166917324066162,1.00, 0.11, -0.05, -1.59, -1.10, 0.61, 33.52, 34.31, 23.82,
0.21768808364868164,1.00, 0.11, -0.05, -2.14, -0.67, 0.92, 33.61, 34.67, 24.90,
0.21870994567871094,0.99, 0.11, -0.05, -2.08, 0.06, 0.79, 33.54, 34.64, 24.60,
0.21870994567871094,1.00, 0.13, -0.05, -3.54, 1.22, -0.37, 33.95, 34.73, 24.73,
0.21968841552734375,0.99, 0.11, -0.06, -2.62, 0.12, 0.18, 33.17, 34.80, 24.08,
0.22071337699890137,1.00, 0.13, -0.06, -0.49, 0.92, -0.98, 33.24, 34.59, 24.74,
0.22168827056884766,0.99, 0.12, -0.06, 3.48, 1.83, -2.99, 33.09, 34.77, 24.12,
0.22168827056884766,1.00, 0.11, -0.08, 5.07, 1.16, -3.85, 33.23, 35.11, 25.38,
0.22271180152893066,1.00, 0.11, -0.07, 6.77, 1.04, -5.13, 32.34, 34.35, 25.29,
0.22271180152893066,0.99, 0.10, -0.08, 5.74, 0.85, -4.58, 32.62, 34.96, 24.30,
0.22370409965515137,1.02, 0.10, -0.09, 5.62, -0.79, -1.95, 32.67, 34.96, 25.39,
0.22470307350158691,1.00, 0.11, -0.07, 12.45, 0.00, 2.62, 32.18, 34.89, 26.88,
0.22470307350158691,0.96, 0.13, -0.06, 21.48, 2.08, 10.31, 32.81, 33.79, 27.40,
0.2257080078125,1.00, 0.21, -0.11, 11.60, 4.64, 15.32, 33.31, 32.26, 28.71,
0.22670841217041016,1.01, 0.23, -0.12, -2.01, -2.50, 4.76, 34.07, 31.15, 27.91,
0.22770357131958008,0.98, 0.21, -0.10, -2.75, -7.20, -3.11, 34.13, 30.79, 27.95,
0.22770357131958008,0.98, 0.23, -0.10, -9.89, -12.94, -5.43, 34.64, 31.02, 27.61,
0.22868800163269043,0.96, 0.25, -0.08, -5.68, -13.79, -9.22, 34.66, 31.96, 25.95,
0.23068857192993164,0.97, 0.13, -0.05, -8.30, -6.53, -16.05, 34.90, 34.33, 24.69,
0.23068857192993164,0.97, 0.01, -0.01, -17.64, -6.65, -25.88, 34.11, 36.24, 24.45,
0.2316882610321045,0.98, -0.06, 0.02, -34.30, -3.78, -21.73, 34.08, 38.65, 22.23,
0.23268723487854004,1.07, -0.04, 0.09, -35.64, -9.16, -19.78, 33.34, 41.14, 20.73,
0.2336869239807129,1.01, -0.10, 0.16, -10.13, -15.44, -0.55, 32.74, 42.29, 17.30,
0.23468780517578125,0.91, -0.10, 0.18, 0.43, -24.23, -1.28, 33.37, 42.11, 14.79,
0.2356874942779541,1.04, -0.11, 0.25, -15.14, -12.70, -5.13, 33.58, 42.61, 15.42,
0.23668837547302246,0.95, -0.05, 0.20, -7.75, 1.83, 1.22, 34.29, 42.54, 13.90,
0.23868942260742188,1.00, -0.06, 0.20, -1.22, 6.35, 3.85, 33.70, 42.70, 13.66,
0.24019694328308105,0.98, -0.03, 0.17, 3.48, 2.62, 0.12, 33.97, 42.50, 14.17,
0.24120664596557617,0.97, -0.05, 0.15, 3.30, 1.40, -1.89, 34.51, 42.02, 14.87,
0.24320483207702637,1.01, -0.10, 0.12, 10.80, 1.83, -4.39, 34.19, 43.16, 15.54,
0.24520564079284668,0.98, -0.09, 0.15, 27.53, 1.53, 0.55, 33.41, 43.03, 15.67,
0.24620604515075684,0.98, -0.17, 0.13, 34.67, -1.65, 9.46, 34.00, 41.71, 19.09,
0.24720501899719238,1.02, -0.17, 0.11, 23.07, -5.25, 0.24, 33.58, 40.98, 20.39,
0.24820518493652344,0.97, -0.00, 0.10, 8.79, 3.85, 5.49, 33.40, 39.97, 20.46,
0.2492046356201172,0.99, 0.04, 0.08, 18.43, -0.61, 13.37, 33.92, 38.82, 21.58,
0.25020480155944824,1.00, 0.07, 0.09, 38.21, -3.36, 22.77, 34.28, 37.46, 23.11,
0.251204252243042,0.99, 0.09, 0.11, 48.89, -8.91, 20.94, 35.28, 34.63, 24.55,
0.25220417976379395,0.96, 0.13, 0.17, 43.33, -3.17, 10.31, 36.16, 32.04, 27.69,
0.253204345703125,1.03, 0.11, 0.23, 13.00, -6.53, 1.34, 36.34, 30.13, 26.46,
0.253204345703125,0.93, 0.07, 0.23, 2.14, -8.12, -1.10, 36.49, 30.11, 27.22,
0.25420331954956055,0.93, 0.08, 0.21, -0.31, -14.95, 0.06, 37.01, 30.14, 24.76,
0.25420331954956055,1.00, 0.08, 0.23, -6.71, 3.78, 0.00, 36.57, 29.86, 25.85,
0.2557075023651123,0.97, 0.06, 0.25, -5.49, 1.40, -5.68, 36.19, 30.14, 25.46,
0.2567117214202881,0.99, 0.07, 0.23, -9.95, -6.77, -5.00, 35.79, 30.92, 25.42,
0.2567117214202881,0.97, 0.06, 0.20, -15.20, 2.81, -4.52, 36.25, 30.82, 26.21,
0.25771164894104004,0.98, 0.10, 0.23, -13.43, 8.12, -1.59, 35.61, 31.59, 24.76,
0.25771164894104004,0.98, 0.07, 0.18, -6.96, 3.30, -1.28, 36.05, 32.52, 23.54,
0.258711576461792,0.94, 0.06, 0.16, -5.74, 4.27, -0.79, 35.88, 32.19, 24.90,
0.25971150398254395,0.96, 0.07, 0.16, 2.08, -7.63, -1.83, 36.28, 32.32, 24.10,
0.25971150398254395,0.98, 0.06, 0.18, 3.23, 5.25, -0.37, 35.90, 32.76, 25.45,
0.2607114315032959,0.99, 0.07, 0.20, 2.20, 1.04, 1.16, 36.27, 32.39, 24.52,
0.26171278953552246,0.99, 0.06, 0.20, 1.16, -2.81, -0.98, 35.53, 31.95, 25.62,
0.26171278953552246,0.98, 0.07, 0.21, 0.85, -1.40, 1.04, 35.67, 31.80, 25.66,
0.262711763381958,0.98, 0.07, 0.22, 1.22, -2.99, 3.05, 36.04, 31.93, 24.82,
0.2632153034210205,0.94, 0.04, 0.23, 1.83, -5.98, 2.81, 36.17, 31.58, 24.82,
0.2642195224761963,1.00, 0.09, 0.23, 2.01, -15.56, -0.73, 36.72, 30.38, 23.58,
0.2642195224761963,0.92, 0.07, 0.16, -2.14, 1.46, -0.79, 37.19, 31.49, 24.30,
0.26521944999694824,0.96, 0.08, 0.24, 0.98, 5.37, 3.11, 37.01, 31.38, 24.26,
0.2662205696105957,0.96, 0.07, 0.24, 0.85, 1.83, 4.58, 36.73, 30.85, 24.08,
0.2662205696105957,0.98, 0.16, 0.23, -2.01, 10.19, 0.06, 36.83, 30.43, 25.50,
0.26721978187561035,0.97, 0.13, 0.23, -5.49, -1.22, -0.49, 36.98, 30.09, 24.87,
0.26721978187561035,0.96, 0.20, 0.23, -16.30, -5.13, -5.07, 36.95, 30.76, 24.99,
0.2682197093963623,1.02, 0.17, 0.22, -22.09, 2.75, -6.96, 37.13, 31.03, 24.17,
0.26921963691711426,0.91, 0.11, 0.19, -2.08, 3.60, -12.63, 37.00, 32.95, 23.96,
0.26921963691711426,1.01, -0.00, 0.18, -11.84, -2.01, -14.47, 37.00, 33.58, 23.49,
0.2702195644378662,0.96, 0.04, 0.19, -18.01, 12.82, -18.74, 35.67, 36.45, 24.00,
0.27121973037719727,0.99, -0.01, 0.15, -13.98, 4.52, -14.89, 35.28, 37.44, 23.32,
0.27172255516052246,0.98, -0.05, 0.14, -20.26, 5.43, -16.48, 34.63, 38.66, 23.32,
0.27272677421569824,0.99, -0.06, 0.14, -27.89, 4.27, -14.22, 34.16, 40.15, 22.35,
0.27272677421569824,0.97, -0.12, 0.12, -40.22, 9.40, -10.19, 33.78, 41.97, 21.26,
0.2737264633178711,0.97, -0.15, 0.09, -31.01, 13.37, -17.46, 32.64, 43.85, 19.85,
0.2737264633178711,1.14, -0.06, 0.08, 1.40, 1.95, -16.66, 31.08, 45.87, 17.90,
0.27472639083862305,0.92, -0.10, 0.11, 7.81, -2.20, 4.39, 31.59, 45.83, 19.04,
0.2757265567779541,1.01, -0.26, 0.06, 0.79, -3.85, 6.71, 32.32, 45.36, 18.14,
0.2757265567779541,1.00, -0.14, 0.08, -14.04, 2.81, -0.67, 32.67, 45.12, 18.70,
0.27725982666015625,1.01, -0.14, 0.10, -18.98, -8.48, -1.28, 32.60, 45.00, 17.25,
0.27783727645874023,1.01, -0.05, 0.17, -8.00, -10.31, 0.98, 32.26, 45.30, 15.93,
0.2783939838409424,0.97, -0.07, 0.15, 10.01, -19.53, 2.87, 33.04, 44.40, 15.63,
0.27945399284362793,0.95, -0.13, 0.21, 5.68, -13.55, 5.31, 32.89, 44.04, 14.59,
0.28008508682250977,0.96, -0.12, 0.21, -7.51, 3.54, -1.77, 33.41, 44.10, 14.82,
0.2806522846221924,0.99, -0.07, 0.23, -11.90, 6.59, 0.12, 33.14, 43.86, 15.17,
0.2812318801879883,0.98, -0.08, 0.19, -6.71, -7.08, 1.10, 33.80, 44.20, 14.11,
0.28178977966308594,1.00, -0.04, 0.20, -6.10, 5.19, 1.59, 32.91, 43.57, 14.16,
0.282346248626709,0.99, -0.04, 0.17, 2.87, 1.71, 4.64, 33.36, 43.10, 13.66,
0.28290414810180664,0.98, -0.03, 0.18, 7.69, -6.10, 4.15, 34.23, 43.52, 13.59,
0.2839674949645996,0.97, -0.04, 0.19, 5.98, -0.67, 3.66, 33.64, 42.49, 13.26,
0.28459596633911133,0.97, -0.02, 0.20, 2.14, 1.16, -1.83, 34.11, 42.60, 14.29,
0.28515195846557617,0.99, -0.04, 0.19, 3.91, -5.37, 0.12, 34.09, 42.49, 14.36,
0.2857093811035156,0.99, -0.02, 0.18, 12.33, -9.16, 6.77, 34.58, 42.44, 13.67,
0.2862861156463623,0.96, -0.04, 0.23, -1.65, -10.86, 10.80, 34.99, 41.44, 12.82,
0.2868630886077881,0.94, -0.00, 0.25, -15.81, -11.41, 8.48, 35.41, 40.25, 13.16,
0.2874414920806885,0.99, 0.07, 0.27, -28.14, -4.27, 6.29, 35.14, 39.65, 11.28,
0.28852391242980957,0.92, 0.10, 0.30, -20.39, -10.01, 11.54, 35.35, 37.94, 10.12,
0.28908300399780273,0.91, 0.10, 0.30, -17.03, -7.81, 6.29, 35.38, 37.18, 8.41,
0.28908300399780273,0.94, 0.14, 0.29, -7.63, 5.55, -1.71, 36.54, 37.11, 7.28,
0.2900867462158203,0.95, 0.13, 0.31, 0.06, -3.54, 0.85, 36.22, 36.99, 7.86,
0.2900867462158203,0.94, 0.13, 0.32, 0.18, 3.54, -1.46, 36.82, 36.45, 7.50,
0.29108715057373047,0.95, 0.10, 0.28, 14.10, 2.75, -5.80, 36.71, 37.02, 8.62,
0.29236531257629395,0.96, 0.10, 0.31, 11.35, 5.31, -6.53, 36.36, 38.20, 8.53,
0.29236531257629395,0.89, 0.03, 0.28, 9.83, 8.79, -13.61, 35.46, 39.10, 9.59,
0.2930874824523926,0.98, 0.03, 0.24, -0.67, 9.89, -15.32, 35.63, 39.45, 11.10,
0.29408717155456543,1.03, 0.02, 0.25, 1.34, -2.38, 2.69, 34.75, 40.43, 11.80,
0.29408717155456543,0.94, 0.00, 0.27, 2.20, -12.63, 10.19, 35.80, 40.56, 11.50,
0.2950868606567383,0.97, 0.03, 0.26, -1.10, 1.59, 1.59, 36.43, 39.28, 11.40,
0.29608678817749023,0.96, 0.03, 0.27, 3.60, 2.38, -0.18, 35.99, 39.69, 10.33,
0.29608678817749023,0.96, 0.01, 0.28, 8.00, -1.95, -3.78, 36.08, 40.11, 11.54,
0.2970867156982422,0.92, 0.01, 0.25, 6.77, 5.92, -6.04, 35.45, 39.65, 11.02,
0.2970867156982422,0.98, 0.04, 0.21, 0.18, 16.66, -6.10, 35.60, 40.49, 11.50,
0.29808664321899414,1.02, -0.01, 0.21, 0.85, 4.58, 2.26, 35.78, 40.64, 13.40,
0.2990865707397461,0.94, 0.03, 0.21, -0.79, -11.66, 1.10, 34.69, 40.64, 13.99,
0.2990865707397461,0.98, 0.01, 0.22, -7.51, -5.86, 0.98, 35.16, 40.65, 14.12,
0.30008673667907715,0.97, 0.03, 0.24, -6.84, 4.70, -0.85, 35.56, 40.23, 11.80,
0.3010871410369873,0.98, 0.03, 0.23, -4.52, -1.28, -0.92, 35.80, 40.15, 11.78,
0.3010871410369873,0.96, 0.02, 0.23, -2.81, -3.85, -0.31, 35.63, 40.20, 11.65,
0.3010871410369873,0.98, 0.02, 0.23, -1.89, 3.11, -1.22, 34.91, 40.56, 11.56,
0.30258965492248535,0.98, 0.01, 0.22, -0.61, 1.83, -0.61, 35.63, 40.67, 13.46,
0.30359363555908203,0.98, 0.03, 0.21, 0.06, -1.77, -1.77, 35.77, 41.17, 11.72,
0.30359363555908203,0.97, 0.01, 0.23, -0.49, -0.12, -0.24, 35.17, 40.81, 11.84,
0.3045930862426758,0.98, 0.01, 0.22, 1.95, -0.79, -2.14, 35.66, 41.20, 11.91,
0.3045930862426758,0.96, 0.01, 0.20, 2.32, 1.16, -3.48, 35.22, 41.09, 12.49,
0.30559396743774414,1.02, -0.00, 0.20, 1.59, 3.05, 2.81, 35.62, 41.55, 12.99,
0.3065938949584961,0.99, 0.03, 0.21, -2.32, -7.20, 2.56, 36.13, 40.93, 12.33,
0.3065938949584961,0.97, 0.02, 0.28, 0.85, -9.52, 2.20, 35.12, 40.52, 12.04,
0.30759382247924805,0.95, 0.01, 0.25, 1.59, 6.53, -0.49, 36.23, 40.83, 11.27,
0.3085942268371582,0.97, 0.02, 0.28, 5.98, 12.33, -1.46, 36.12, 40.55, 12.78,
0.3085942268371582,0.97, -0.01, 0.20, 18.68, 7.57, -5.80, 35.18, 40.70, 15.10,
0.30959367752075195,1.00, 0.04, 0.19, 1.10, 28.44, -0.85, 35.28, 40.94, 15.87,
0.30959367752075195,0.94, -0.01, 0.00, 10.13, 18.01, -10.44, 35.02, 41.05, 16.93,
0.310593843460083,1.04, -0.10, 0.08, 23.38, 24.72, 3.17, 34.73, 40.67, 21.89,
0.31159353256225586,1.00, -0.03, 0.01, 48.95, 9.89, -2.26, 34.74, 40.19, 24.35,
0.31159353256225586,1.01, -0.11, -0.01, 79.77, -8.30, 12.76, 34.50, 38.13, 27.42,
0.3125934600830078,1.03, -0.11, 0.01, 82.64, -10.68, 12.51, 35.60, 34.84, 28.98,
0.31359314918518066,0.99, 0.01, 0.02, 64.88, -1.40, 15.38, 35.14, 31.51, 31.59,
0.31359314918518066,0.96, 0.14, 0.02, 41.38, 5.13, 21.55, 35.99, 26.90, 32.75,
0.3145937919616699,1.00, 0.19, 0.09, 48.46, 4.52, 7.20, 35.40, 24.22, 33.31,
0.3155937194824219,1.01, 0.14, 0.12, 36.74, 0.49, 2.99, 34.61, 20.50, 36.47,
0.3155937194824219,0.96, 0.13, 0.12, 37.11, -6.35, 5.19, 35.03, 18.51, 36.28,
0.31659364700317383,1.00, 0.11, 0.11, 20.63, -3.85, -0.61, 35.46, 16.41, 35.53,
0.31659364700317383,0.98, 0.09, 0.11, 1.89, 2.44, -5.62, 35.58, 16.33, 34.85,
0.3175935745239258,1.00, 0.07, 0.12, -4.52, -6.16, -5.25, 34.92, 16.42, 35.77,
0.31859350204467773,1.00, 0.05, 0.12, -11.90, -9.22, -6.90, 35.55, 17.76, 35.89,
0.31859350204467773,0.99, 0.07, 0.15, -18.43, -9.77, -3.30, 35.45, 18.84, 35.64,
0.3195934295654297,0.99, 0.08, 0.17, -14.65, -4.33, -3.05, 36.02, 19.37, 33.44,
0.32059335708618164,0.98, 0.08, 0.17, -6.96, -4.94, 0.85, 35.82, 19.45, 33.37,
0.32059335708618164,0.99, 0.08, 0.18, -0.98, -3.36, 0.92, 36.24, 20.13, 31.95,
0.3215937614440918,0.99, 0.07, 0.17, -1.10, -0.31, -3.05, 36.29, 20.79, 31.69,
0.3215937614440918,0.99, 0.07, 0.16, -1.83, -0.92, -1.65, 36.35, 20.35, 32.59,
0.32259368896484375,0.99, 0.06, 0.17, -1.04, -1.34, -0.43, 36.07, 20.54, 32.85,
0.3238558769226074,0.99, 0.08, 0.18, -1.77, 0.00, -0.67, 36.16, 20.52, 32.19,
0.3238558769226074,0.96, 0.07, 0.17, 2.81, 1.89, -0.06, 35.61, 20.07, 32.71,
0.32459425926208496,0.99, 0.07, 0.14, 8.97, 4.88, 2.20, 35.64, 19.95, 33.07,
0.3255939483642578,0.99, 0.06, 0.15, 82.21, 18.92, 10.86, 34.89, 19.34, 40.12,
0.3255939483642578,0.56, -0.01, -0.03, 35.77, 11.54, -2.81, 34.57, 13.17, 40.34,
0.3452000617980957,-0.18, -0.08, -0.11, -6.71, -25.15, -14.04, 34.94, 12.94, 39.94,
0.45531392097473145,2.41, -0.38, -0.01, -44.92, -21.24, -14.95, 35.45, 16.42, 39.93,
0.5655632019042969,0.85, 0.19, -0.12, -54.75, -8.48, 7.69, 35.00, 19.71, 39.50,
0.6758038997650146,-0.50, -0.08, -0.39, 11.60, -30.88, -25.33, 34.74, 20.89, 39.17,
0.785768985748291,2.49, 0.83, 0.16, 83.13, -6.23, 10.68, 36.50, 20.69, 37.35,
0.8969554901123047,1.09, -0.01, 0.05, 75.44, 11.11, 11.60, 35.96, 12.46, 40.80,
1.0065743923187256,0.08, -0.18, -0.16, 52.37, -26.61, -13.49, 35.88, 8.65, 39.42,
1.1162240505218506,1.92, -0.65, -0.27, -10.50, 67.38, -15.08, 37.82, 8.58, 36.95,
1.2262389659881592,1.52, -0.06, 0.18, -31.56, -10.62, 20.75, 37.11, 11.11, 39.65,
1.3369197845458984,-0.15, 0.10, -0.17, -75.87, -38.27, -10.07, 36.67, 10.17, 40.47,
1.4479365348815918,0.47, -0.31, 0.06, 54.69, 88.56, 15.63, 39.20, 13.04, 34.94,
1.5577850341796875,2.19, -0.02, -0.05, 54.44, -8.30, 43.88, 37.50, 9.02, 38.77,
1.6679260730743408,-0.39, -0.31, 0.32, 35.83, -60.00, -6.96, 37.19, 5.46, 37.55,
1.7777202129364014,0.07, -0.08, -0.10, 48.89, -67.26, 18.68, 37.85, 9.38, 38.00,
1.8878037929534912,2.41, -0.04, 0.25, -77.58, 114.01, 17.03, 37.84, 10.01, 39.23,
1.99723482131958,0.88, 0.00, 0.09, -36.99, -46.02, 20.45, 37.78, 13.21, 39.17,
2.107628107070923,-0.19, -0.07, -0.47, -64.82, 11.60, -74.46, 38.95, 15.21, 36.65,
2.2173030376434326,2.61, 0.20, 0.27, 99.49, 70.07, 94.97, 38.45, 16.46, 37.35,
2.327129364013672,1.23, 0.16, 0.17, 19.35, -19.35, 22.34, 38.12, 11.29, 36.79,
2.4372634887695312,-0.03, -0.46, 0.01, 8.12, -40.41, -39.25, 39.11, 10.55, 36.57,
2.5476906299591064,0.65, 0.09, 0.07, 5.37, 30.27, -0.49, 40.67, 19.14, 32.73,
2.657937526702881,2.11, 0.02, 0.24, -32.29, 2.38, -16.78, 38.42, 13.78, 37.46,
2.766550064086914,0.11, -0.54, -0.18, -104.86, -40.53, -69.95, 38.28, 15.00, 37.37,
2.8770930767059326,0.01, 0.66, -0.64, 34.12, 149.78, 64.82, 40.14, 24.29, 30.44,
2.9877305030822754,2.65, 0.49, -0.12, 82.89, -2.14, 44.74, 36.22, 18.21, 40.38,
3.0970547199249268,0.40, -0.06, 0.06, 35.89, 21.79, -3.48, 37.11, 12.61, 38.15,
3.2077834606170654,-0.14, -0.06, -0.11, 0.67, -20.45, -23.07, 36.93, 12.95, 39.98,
3.316986560821533,2.88, 0.45, 0.74, -111.27, 82.09, -59.45, 37.59, 14.62, 38.81,
3.427480459213257,1.26, 0.03, 0.03, -68.54, -15.44, 28.75, 36.87, 20.07, 39.45,
3.537343740463257,0.65, 0.22, -0.04, -87.10, 82.52, 1.83, 36.46, 21.12, 39.00,
3.6477832794189453,1.33, 0.17, 0.22, 76.66, -2.50, 4.21, 36.82, 20.58, 39.15,
3.75677227973938,1.98, -0.13, 0.28, 70.19, 15.26, 23.93, 37.26, 15.83, 39.61,
3.8666112422943115,-0.00, -0.13, 0.12, -13.18, 44.62, -4.64, 36.55, 13.70, 39.27,
3.9764323234558105,0.19, -0.05, -0.03, 27.22, -50.11, -7.87, 37.51, 14.38, 39.18,
4.086068868637085,2.37, -0.39, -0.03, -72.88, 13.06, -1.71, 36.76, 17.58, 39.84,
4.196532487869263,0.50, 0.04, -0.08, -44.01, -7.93, 18.19, 36.30, 20.96, 39.92,
4.3060994148254395,-0.43, 0.04, -0.07, 34.61, -29.72, -4.15, 36.74, 20.58, 39.15,
4.417225122451782,3.11, 0.36, 0.09, 36.93, 36.74, -30.33, 35.82, 19.36, 39.44,
4.5263848304748535,0.95, -0.20, 0.03, 65.31, 0.67, -15.38, 37.13, 13.31, 41.16,
4.636640787124634,-0.05, -0.16, -0.28, 3.97, -23.32, -24.54, 35.00, 13.10, 41.93,
4.745971918106079,2.28, -0.55, -0.34, -56.58, 32.35, -9.28, 37.90, 14.65, 39.20,
4.8563103675842285,1.54, 0.13, 0.04, -91.92, -0.61, 11.23, 36.02, 19.87, 41.72,
4.965088129043579,0.54, 0.01, -0.20, -94.42, 71.66, 19.17, 35.94, 21.63, 40.87,
5.0756542682647705,0.44, 0.19, -0.07, 61.10, -26.98, -1.22, 35.99, 22.00, 40.42,
5.185286283493042,1.90, 0.24, 0.03, 79.71, 30.46, 40.53, 36.45, 18.54, 41.32,
5.2957634925842285,0.24, -0.01, 0.03, 40.71, 6.53, -5.55, 35.67, 13.84, 41.44,
5.406395196914673,-0.01, -0.12, -0.08, 20.51, -52.73, -17.58, 36.01, 13.20, 41.22,
5.516753435134888,2.39, -0.60, -0.09, -73.36, 3.72, 3.91, 36.39, 16.54, 41.65,
5.627462387084961,0.55, 0.12, -0.10, -52.31, -16.48, 10.31, 36.55, 20.74, 40.27,
5.737135648727417,-0.61, 0.01, -0.35, 31.74, -63.96, -12.21, 36.17, 22.56, 38.33,
5.847833871841431,2.54, 0.00, -0.01, 49.13, 11.96, -22.46, 35.58, 21.12, 39.34,
5.957301616668701,0.88, -0.22, 0.06, 67.26, 6.35, 2.20, 36.61, 15.44, 40.56,
6.067077159881592,-0.10, -0.10, -0.22, 18.74, 7.63, -17.52, 35.51, 14.14, 41.92,
6.177633285522461,1.85, -0.84, -0.31, -73.97, 60.00, -0.92, 37.60, 13.72, 39.37,
6.286814212799072,1.67, 0.10, 0.07, -101.32, -3.78, 9.83, 35.35, 19.12, 42.71,
6.396047592163086,0.60, 0.04, -0.17, -82.46, 64.39, 17.15, 35.07, 22.86, 40.98,
6.5061163902282715,0.31, 0.19, -0.18, 67.26, -41.08, -1.40, 36.15, 22.88, 38.38,
6.616232633590698,2.01, 0.24, 0.06, 50.60, 33.94, 27.65, 35.53, 21.34, 40.93,
6.725810289382935,0.08, -0.22, 0.02, 21.36, -1.04, 9.34, 34.74, 17.15, 41.36,
6.835446834564209,-0.38, -0.01, -0.04, 39.73, -58.84, -26.37, 35.39, 17.97, 41.13,
6.944026708602905,2.46, -0.64, 0.23, -94.24, 16.54, 14.40, 36.18, 19.74, 39.44,
7.054293155670166,0.57, 0.03, -0.11, -51.70, -17.46, 32.65, 35.64, 23.45, 39.62,
7.164451837539673,-0.39, -0.04, -0.27, 30.40, -52.55, -25.39, 36.06, 24.49, 38.00,
7.276655435562134,2.87, 0.41, 0.23, 85.69, -34.79, 3.05, 35.36, 24.17, 37.94,
7.386714935302734,1.11, -0.28, 0.08, 62.01, -4.70, -1.95, 36.87, 18.10, 39.83,
7.4961347579956055,0.00, -0.08, -0.21, 0.37, 4.58, -2.26, 35.88, 16.58, 40.38,
7.606613397598267,2.11, -0.38, -0.13, -49.93, 68.18, 3.05, 37.82, 15.77, 38.35,
7.718201160430908,1.52, 0.07, 0.12, -87.71, -3.42, 13.55, 36.05, 19.45, 41.02,
7.8273656368255615,0.47, 0.02, -0.18, -104.43, 64.64, 5.68, 34.64, 22.55, 40.73,
7.93778920173645,0.20, 0.07, -0.21, 66.10, -43.88, 9.22, 35.73, 22.62, 39.71,
8.047144412994385,1.99, 0.09, 0.01, 87.10, 58.84, 32.78, 35.47, 18.65, 41.50,
8.157234191894531,-0.17, -0.15, -0.06, 32.47, -2.62, 2.62, 34.34, 13.40, 41.36,
8.266967535018921,-0.12, -0.05, -0.11, 37.72, -60.49, -19.47, 34.17, 13.37, 41.64,
8.3777015209198,2.70, -0.53, -0.01, -81.67, 15.38, -0.24, 35.25, 16.75, 41.47,
8.487682819366455,0.68, 0.15, -0.09, -41.81, -17.58, 22.34, 34.23, 21.81, 39.95,
8.596817970275879,-0.56, 0.05, -0.24, 4.64, -22.64, -12.21, 34.55, 22.12, 39.69,
8.706709861755371,3.20, 0.51, -0.02, 51.09, -12.94, 2.20, 34.55, 21.11, 39.97,
8.816749811172485,1.04, -0.35, 0.13, 74.58, -2.26, -2.93, 35.79, 14.77, 40.47,
8.926492691040039,0.42, -0.04, -0.09, -7.81, 37.23, 0.12, 35.25, 13.22, 41.24,
9.035107612609863,1.24, -0.49, 0.16, -19.41, -20.57, -6.29, 36.52, 12.88, 40.09,
9.144367218017578,1.59, 0.03, 0.22, -98.69, 23.68, 6.59, 35.27, 17.08, 40.16,
9.252902746200562,0.12, 0.05, -0.20, -33.57, 5.80, 20.02, 34.51, 19.42, 40.80,
9.363452672958374,0.26, 0.28, -0.13, 67.08, -23.38, -9.34, 35.12, 20.04, 40.60,
9.475202083587646,1.97, 0.13, -0.01, 84.11, 18.49, 28.81, 35.18, 16.32, 42.04,
9.585790157318115,0.33, 0.01, 0.00, 21.85, 18.13, -2.99, 34.42, 12.56, 42.74,
9.694351434707642,-0.15, -0.19, -0.20, -17.88, -16.42, -13.49, 35.41, 10.77, 41.88,
9.807361125946045,2.76, -0.62, -0.23, -64.94, -21.91, -2.62, 35.86, 17.68, 41.96,
9.917778730392456,0.54, 0.13, -0.20, -47.61, -1.22, 24.96, 35.27, 21.01, 40.75,
10.027836799621582,-0.59, 0.04, -0.14, 31.31, -65.61, -13.55, 35.39, 21.64, 40.94,
10.137202739715576,3.51, -0.01, -0.02, 14.40, 17.33, -8.91, 35.77, 20.19, 40.76,
10.24774694442749,1.15, -0.40, 0.06, 89.11, 2.56, 17.15, 36.18, 14.01, 41.63,
10.357017040252686,0.19, -0.05, -0.04, -19.53, 36.68, -17.46, 35.38, 11.95, 40.41,
10.467137336730957,0.13, -0.25, -0.38, -56.52, 18.68, -2.69, 37.30, 12.18, 40.39,
10.577098608016968,2.17, -0.21, -0.01, -97.17, -3.11, 38.21, 34.47, 19.03, 43.48,
10.687264919281006,-0.18, 0.11, -0.26, -48.71, 25.39, 30.70, 35.14, 20.18, 41.80,
10.79643177986145,-0.14, 0.16, -0.07, 73.49, -42.60, -12.08, 35.39, 20.30, 40.30,
10.90663456916809,2.80, 0.87, -0.02, 60.85, -25.15, 16.85, 34.40, 18.95, 42.31,
11.015998363494873,0.66, -0.03, 0.12, 58.59, -27.28, -26.37, 35.97, 13.26, 41.97,
11.12742805480957,-0.69, -0.10, 0.07, 20.45, -70.25, -31.43, 35.30, 13.67, 40.03,
11.237741947174072,3.03, -0.09, 0.09, -100.65, 106.93, -26.61, 36.01, 17.98, 40.55,
11.347341299057007,1.28, 0.07, -0.01, -71.78, -10.31, 19.17, 35.73, 21.79, 40.41,
11.458425760269165,0.32, 0.16, 0.07, -99.91, 72.45, 6.84, 34.97, 23.79, 40.48,
11.567510604858398,1.15, 0.04, 0.19, 68.66, -10.50, 15.87, 36.23, 22.67, 38.00,
11.677797079086304,1.78, -0.22, 0.31, 75.38, 21.61, 24.78, 37.16, 19.82, 39.62,
11.787246942520142,-0.18, -0.15, -0.06, 12.63, 20.32, -3.85, 36.89, 15.27, 38.10,
11.896962881088257,0.13, -0.18, -0.11, 9.16, -28.75, -10.44, 37.48, 15.01, 39.78,
12.008321762084961,2.07, -0.12, 0.35, -101.01, 36.56, -15.81, 36.15, 20.37, 41.15,
12.118633031845093,0.18, 0.10, -0.20, -25.27, 17.76, 25.15, 36.05, 21.70, 40.32,
12.228403329849243,-0.25, 0.01, -0.16, 31.98, -25.57, -11.60, 35.35, 22.58, 40.31,
12.339195966720581,2.72, 0.73, -0.02, 68.66, -24.35, 16.54, 35.39, 21.39, 40.47,
12.450459003448486,0.63, -0.11, 0.02, 36.38, -3.78, -10.56, 36.22, 14.42, 41.44,
12.560232162475586,-0.36, 0.01, -0.05, 1.65, -25.57, -20.75, 36.88, 15.69, 40.00,
12.670243740081787,2.81, -0.13, 0.03, -51.03, -12.45, -29.11, 36.94, 18.33, 40.81,
12.7799813747406,1.04, 0.05, -0.13, -68.79, 6.41, 14.34, 36.32, 22.02, 39.59,
12.890025854110718,-0.23, -0.01, -0.32, -31.19, 13.31, -7.57, 34.86, 23.50, 40.20,
13.000710487365723,0.87, 0.11, 0.18, 99.12, -16.11, -4.52, 35.95, 23.44, 39.54,
13.109455108642578,1.91, -0.33, 0.18, 85.94, 46.26, 24.29, 37.02, 18.48, 40.77,
13.218831062316895,-0.24, -0.22, -0.05, 29.36, 35.22, 7.51, 35.60, 13.20, 41.99,
13.329154253005981,0.28, -0.22, -0.01, -20.32, -40.10, -5.92, 36.13, 12.28, 41.47,
13.43959093093872,2.25, -0.36, 0.08, -91.49, 9.83, -2.01, 35.83, 18.81, 41.65,
13.549736738204956,0.22, 0.08, -0.11, -64.45, 16.05, 19.17, 35.41, 21.78, 40.83,
13.659765720367432,-0.26, 0.05, -0.13, 27.10, -18.86, 2.99, 34.79, 22.38, 41.10,
13.770611763000488,3.16, 1.06, -0.02, 49.01, -16.54, 5.74, 34.56, 20.69, 40.28,
13.879772901535034,0.75, 0.05, 0.02, 42.72, 1.71, -18.13, 35.29, 15.22, 41.55,
13.989571571350098,-0.44, -0.12, -0.13, 17.58, -41.38, -31.49, 35.41, 15.34, 40.67,
14.099170446395874,3.14, -0.55, 0.10, -75.99, 68.48, -18.86, 35.82, 19.35, 41.52,
14.209535121917725,1.30, 0.21, -0.00, -81.42, -3.78, 16.97, 35.35, 22.64, 40.81,
14.319276094436646,0.04, 0.07, -0.21, -70.68, 42.18, 8.54, 35.08, 23.61, 38.38,
14.43016529083252,0.78, 0.25, -0.09, 95.64, -8.73, -10.38, 35.22, 23.85, 37.43,
14.540209531784058,1.98, -0.09, 0.09, 76.23, 34.42, 10.50, 35.79, 20.08, 40.08,
14.650360345840454,-0.51, -0.13, -0.00, 41.44, 27.65, 13.31, 34.78, 12.70, 42.97,
14.759607791900635,0.01, -0.26, -0.18, 50.66, -58.11, -12.21, 37.68, 10.00, 40.30,
14.869084358215332,2.92, -0.47, -0.25, -53.53, -8.48, 3.23, 35.93, 15.15, 42.69,
14.97953987121582,1.36, 0.18, -0.42, -105.22, 65.98, 37.54, 36.24, 17.69, 40.95,
15.089080810546875,-0.34, 0.10, -1.27, 32.10, -55.30, -16.05, 38.46, 19.76, 35.95,
15.19948124885559,2.61, 0.54, -0.08, 77.70, -27.16, 4.27, 37.56, 18.48, 39.66,
15.309823989868164,0.69, 0.03, -0.37, 37.66, 78.55, -0.92, 37.74, 13.57, 39.54,
15.419529914855957,0.08, 0.44, 0.28, -92.10, 93.38, -19.65, 37.35, 14.97, 41.32,
15.529270887374878,1.53, -0.38, -0.16, -74.65, 70.37, -0.31, 38.89, 15.39, 36.78,
15.640805959701538,1.77, 0.14, 0.09, -100.22, -9.58, -3.78, 35.02, 20.81, 42.20,
15.751216888427734,0.24, -0.02, -0.08, -35.64, 0.73, -2.69, 34.83, 23.60, 40.33,
15.86112928390503,0.27, 0.18, -0.14, 46.08, -18.43, 1.46, 34.96, 24.99, 39.07,
15.97134256362915,1.83, 0.11, -0.07, 92.22, 16.91, 34.12, 34.67, 23.49, 40.05,
16.080949068069458,-0.03, -0.10, 0.04, 50.90, 7.39, 3.85, 33.73, 15.78, 42.42,
16.191274881362915,-0.09, -0.17, -0.03, -12.39, -36.68, -6.35, 34.01, 17.97, 43.36,
16.301196813583374,2.47, -0.26, -0.19, -70.98, 0.55, -3.72, 34.50, 22.00, 43.36,
16.411683797836304,0.56, -0.05, -0.16, -38.57, -2.75, 26.86, 34.16, 23.91, 41.63,
16.52165174484253,-0.35, 0.19, -0.19, 36.80, -31.01, -2.62, 33.92, 23.19, 41.03,
16.631352424621582,2.38, 0.40, -0.19, 87.46, -60.36, 16.54, 35.00, 21.07, 42.02,
16.74020028114319,0.81, -0.13, 0.01, 42.91, 17.33, -9.89, 35.60, 13.77, 40.67,
16.850600242614746,-0.18, -0.21, -0.21, 8.36, -19.10, -8.97, 34.67, 14.06, 42.48,
16.96027898788452,3.14, -1.03, 0.56, -67.38, 52.00, -29.60, 36.01, 16.49, 41.85,
17.069274187088013,1.45, 0.17, -0.01, -85.75, 17.33, 11.96, 35.14, 20.50, 40.94,
17.180031299591064,-0.19, 0.19, -0.28, -10.93, -19.71, 6.47, 35.52, 21.86, 39.45,
17.289576053619385,1.29, 0.15, 0.11, 104.68, 21.79, -6.90, 36.00, 21.28, 39.14,
17.40062427520752,1.46, -0.35, 0.14, 71.90, 32.84, 18.74, 35.56, 15.75, 41.48,
17.510645866394043,0.27, -0.18, 0.06, -21.12, 56.34, 1.16, 34.68, 11.33, 43.46,
17.619990587234497,0.26, -0.20, -0.26, 8.85, -71.96, -25.39, 33.80, 13.81, 42.93,
17.731646060943604,1.99, -0.36, 0.05, -82.58, 0.79, -9.58, 34.47, 18.62, 43.90,
17.84230136871338,0.10, -0.04, -0.18, -36.13, -1.28, 19.47, 35.06, 21.08, 42.70,
17.952508211135864,0.14, 0.07, -0.12, 30.03, -2.20, 3.05, 35.17, 20.87, 42.47,
18.060790300369263,3.24, 0.96, -0.32, 86.49, -25.15, 4.33, 34.17, 19.32, 43.77,
18.171088933944702,0.77, -0.08, -0.13, 18.37, 44.86, -18.25, 32.86, 10.71, 46.13,
18.280969619750977,-0.24, -0.21, -0.26, 3.05, -21.55, -22.64, 31.59, 10.03, 45.31,
18.390671968460083,2.71, 0.01, 0.09, -89.97, 6.65, -28.20, 32.79, 14.58, 44.62,
18.501705408096313,1.31, 0.12, -0.08, -76.90, 78.31, 20.87, 34.42, 20.90, 45.06,
18.610923051834106,-0.06, 0.17, -0.31, -25.57, 8.73, 13.55, 31.81, 22.49, 44.20,
18.720874547958374,1.08, 0.21, -0.15, 107.60, -43.15, -0.98, 33.13, 22.05, 45.02,
18.830090045928955,1.49, -0.26, -0.16, 63.60, 60.49, 21.18, 33.26, 13.43, 45.64,
18.9389750957489,0.17, -0.13, -0.06, 49.99, -0.12, 0.18, 31.25, 11.65, 46.24,
19.049080848693848,0.15, -0.20, -0.13, -64.51, -9.34, -8.36, 33.91, 10.73, 44.45,
19.159932374954224,2.80, -0.31, -0.39, -73.91, -47.85, 7.20, 33.36, 17.47, 45.04,
19.27021884918213,0.57, 0.16, -0.18, -43.82, 12.08, 14.83, 33.12, 21.31, 44.15,
19.38076090812683,-0.08, 0.12, -0.20, 43.64, -39.00, -5.13, 32.10, 22.38, 43.65,
19.490633487701416,2.52, 0.61, -0.45, 74.40, -32.96, 16.54, 34.13, 18.21, 42.49,
19.601069688796997,0.92, 0.03, -0.07, 29.79, 18.80, -11.90, 33.69, 13.66, 45.63,
19.711199045181274,-0.15, -0.06, -0.18, 31.49, -41.44, -28.08, 33.51, 13.12, 43.80,
19.821470499038696,3.14, -0.41, 0.13, -90.45, 44.68, -26.92, 34.58, 15.88, 43.47,
19.930943489074707,1.54, -0.07, 0.24, -93.63, 47.79, 28.02, 33.65, 21.20, 42.65,
20.041099548339844,-0.02, 0.09, -0.19, -20.45, 12.70, 16.36, 33.34, 23.40, 42.00,
20.15060544013977,0.80, 0.20, -0.20, 89.23, -20.94, 3.85, 34.16, 22.20, 40.94,
20.260685920715332,1.84, 0.04, 0.01, 81.24, 48.77, 26.18, 35.60, 15.94, 42.35,
20.368810653686523,0.31, -0.04, -0.06, 40.16, 12.51, -5.49, 33.84, 13.48, 42.71,
20.47880530357361,0.21, -0.18, -0.06, -37.48, 4.27, -12.70, 34.99, 12.72, 42.33,
20.589589834213257,2.82, -0.57, -0.24, -49.19, -17.03, -13.18, 34.47, 16.97, 42.58,
20.69996190071106,0.59, 0.09, -0.12, -38.15, 15.69, 14.65, 33.58, 20.40, 43.08,
20.81010413169861,-0.28, 0.04, -0.19, -8.00, -17.64, -3.97, 31.81, 22.09, 43.97,
20.920350074768066,2.52, 0.22, 0.26, 22.46, -3.85, 33.69, 32.31, 21.13, 43.70,
21.029325246810913,1.26, -0.23, 0.25, 11.96, 83.31, 19.35, 32.96, 14.47, 44.97,
21.13785433769226,-0.05, -0.13, -0.10, 42.85, -16.30, 8.00, 31.07, 11.98, 46.33,
21.248095989227295,0.69, -0.26, -0.25, -67.50, -6.71, -5.55, 33.40, 11.15, 45.07,
21.3582444190979,2.01, -0.26, -0.15, -105.16, -2.50, 0.55, 34.07, 15.50, 44.41,
21.46690011024475,0.40, 0.18, -0.19, -59.39, 11.54, 29.54, 32.89, 19.57, 45.03,
21.57709836959839,0.05, 0.07, -0.20, 19.47, -38.15, -17.76, 32.92, 21.29, 44.51,
21.68733787536621,3.04, 0.58, -0.27, 49.62, -35.46, -23.19, 34.17, 20.67, 44.09,
21.79694962501526,0.92, -0.11, 0.02, 21.61, 27.10, -5.13, 34.40, 16.24, 45.58,
21.907381057739258,-0.21, -0.28, -0.20, 56.15, -37.96, -14.40, 33.45, 13.59, 44.57,
22.01694965362549,2.04, -1.05, 0.05, 64.15, -29.60, -34.42, 34.86, 15.19, 43.08,
22.127710819244385,1.54, 0.03, 0.32, -94.85, 83.74, 28.87, 35.02, 19.31, 43.03,
22.23686718940735,0.10, 0.37, -0.24, -44.31, 11.41, 0.06, 32.95, 21.34, 43.98,
22.34746289253235,0.16, 0.14, -0.13, 15.93, -24.05, -4.64, 32.86, 22.51, 43.30,
22.457341194152832,2.04, 0.49, -0.29, 46.69, -24.96, 23.74, 33.97, 19.27, 42.99,
22.567744493484497,0.58, 0.11, 0.03, 36.19, -3.85, -0.73, 33.09, 14.82, 45.37,
22.677226066589355,-0.13, -0.10, -0.15, -19.71, -56.40, -24.23, 32.64, 12.81, 43.84,
22.787183046340942,2.64, -0.58, 0.21, -24.66, -3.48, -71.23, 36.45, 13.67, 41.66,
22.89709782600403,1.28, 0.07, 0.23, -104.98, 44.62, 33.51, 35.85, 21.47, 41.52,
23.006093978881836,0.03, 0.12, -0.21, -53.34, -0.18, 3.23, 34.46, 24.33, 41.61,
23.11616802215576,0.55, 0.03, -0.11, 52.61, -52.86, 14.65, 38.02, 23.22, 36.76,
23.226044416427612,2.01, 0.05, 0.04, 33.51, 56.21, 47.30, 36.80, 18.80, 40.39,
23.33475661277771,0.13, 0.04, 0.12, 38.51, 14.95, 11.54, 36.05, 14.67, 41.49,
23.443828105926514,-0.19, -0.09, -0.13, -2.08, -26.55, -45.65, 34.52, 15.99, 43.84,
23.554495811462402,2.79, -0.58, -0.39, -37.48, 12.76, -16.36, 36.34, 17.29, 43.95,
23.664225816726685,0.87, -0.24, -0.09, -59.69, 15.01, 38.88, 34.88, 20.79, 43.38,
23.77313995361328,-0.20, 0.04, -0.25, -19.59, 12.63, 0.00, 33.20, 23.19, 44.04,
23.882055521011353,2.93, 0.51, 0.06, 21.48, 1.77, 34.73, 33.24, 21.11, 43.29,
23.991353273391724,1.66, -0.05, 0.39, 1.10, 74.16, 1.77, 34.11, 16.52, 44.78,
24.101272344589233,0.08, -0.07, -0.03, 25.76, 14.65, -14.04, 32.04, 15.09, 45.14,
24.211779832839966,0.39, -0.20, -0.41, -41.32, -14.77, -7.26, 33.53, 14.58, 45.98,
24.32192087173462,2.00, -0.32, -0.18, -76.23, 7.20, -18.98, 33.53, 18.60, 43.43,
24.43201184272766,0.29, 0.03, -0.17, -16.97, 2.81, -0.12, 32.93, 21.57, 43.93,
24.54263687133789,0.01, 0.08, -0.18, 21.73, -20.81, -4.46, 33.62, 21.73, 43.18,
24.652299642562866,3.06, 0.77, -0.36, 51.21, -18.98, -5.68, 33.62, 19.51, 44.24,
24.761996269226074,0.96, -0.14, -0.15, 19.84, 45.10, -1.83, 32.80, 13.59, 45.53,
24.872774124145508,-0.12, -0.14, -0.21, 26.98, -44.43, -15.14, 30.03, 11.84, 47.55,
24.983362436294556,2.02, -0.64, 0.22, 15.56, -50.05, -1.28, 32.51, 13.32, 45.19,
25.093108892440796,1.54, 0.03, -0.03, -100.40, 75.13, 6.96, 34.48, 17.71, 43.49,
25.20183038711548,0.11, 0.21, -0.22, -37.54, 11.72, 14.83, 32.13, 21.25, 43.87,
25.31240153312683,0.11, 0.06, -0.22, 27.34, -25.15, -1.22, 32.57, 21.15, 44.70,
25.423316955566406,1.87, 0.72, -0.21, 83.80, -43.52, 5.37, 32.07, 18.21, 44.23,
25.53199791908264,0.79, 0.16, -0.05, 33.81, 6.65, -14.04, 31.93, 14.23, 44.53,
25.642427682876587,-0.37, -0.16, -0.14, 16.11, -30.52, -15.38, 31.85, 12.68, 44.96,
25.752591609954834,2.44, -0.14, 0.09, -35.46, -17.21, -52.55, 33.62, 13.70, 43.13,
25.861926555633545,1.16, -0.03, -0.14, -77.51, 50.42, 17.52, 33.50, 20.65, 43.41,
25.97223401069641,-0.21, 0.04, -0.29, -5.62, 18.01, 13.67, 30.68, 24.16, 44.32,
26.082688331604004,0.77, -0.08, -0.26, 46.69, -17.88, -2.38, 33.00, 22.51, 44.37,
26.192129611968994,1.87, -0.03, -0.04, 73.30, 26.61, 34.73, 34.24, 17.64, 43.66,
26.302907705307007,0.21, 0.04, -0.02, 46.57, 3.05, 2.56, 32.93, 14.07, 45.45,
26.41367506980896,-0.03, -0.09, -0.06, -1.65, -13.37, -14.53, 32.82, 12.82, 44.84,
26.523410081863403,2.73, 0.10, -0.38, -25.21, -87.77, 18.98, 36.71, 14.45, 43.03,
26.63248634338379,0.71, -0.05, -0.24, -65.61, 65.06, 31.13, 35.12, 16.63, 42.97,
26.742105960845947,-0.14, 0.03, -0.27, -14.71, -17.15, -28.93, 35.16, 18.30, 42.20,
26.851072072982788,2.59, 0.57, -0.04, 69.09, 75.01, 39.37, 36.78, 20.57, 40.16,
26.960132598876953,1.38, 0.15, 0.02, 40.47, -0.43, 2.50, 35.78, 15.70, 41.38,
27.070302724838257,0.01, 0.02, -0.03, 16.36, -19.23, -2.75, 36.56, 14.69, 40.10,
27.180627822875977,0.33, -0.02, -0.03, -54.50, -87.89, -36.87, 37.35, 16.48, 38.83,
27.29082202911377,2.09, -0.17, 0.05, -41.02, 54.50, -44.13, 37.11, 20.30, 38.84,
27.402358531951904,0.11, -0.01, -0.21, -4.76, -26.06, -4.82, 35.05, 23.17, 38.88,
27.513035535812378,0.06, 0.11, -0.02, 12.27, -19.90, -7.87, 34.88, 23.14, 39.71,
27.622684001922607,3.02, 0.04, -0.31, 39.55, -21.36, 50.05, 35.24, 21.81, 40.47,
27.73337483406067,0.69, 0.09, -0.15, 65.19, 11.96, -7.08, 34.42, 16.13, 43.53,
27.842828512191772,-0.16, -0.23, -0.26, 26.61, -10.56, -8.91, 32.76, 13.51, 43.08,
27.953068256378174,2.30, -0.23, -0.18, -83.74, 6.16, -32.65, 33.96, 16.26, 43.85,
28.063127994537354,1.39, -0.05, -0.08, -69.46, 54.26, 18.98, 33.29, 19.32, 42.63,
28.17282795906067,-0.03, 0.17, -0.27, -6.53, -13.31, 16.72, 32.18, 21.06, 42.11,
28.283371448516846,0.59, 0.27, 0.03, 63.66, 27.83, 7.14, 33.14, 20.18, 42.47,
28.392524242401123,1.62, 0.39, -0.26, 88.81, 30.40, 17.03, 31.79, 16.80, 43.62,
28.50184392929077,0.16, -0.12, 0.02, 40.95, 29.11, -5.86, 30.26, 12.90, 45.96,
28.611350536346436,0.13, -0.22, -0.10, -47.12, -36.25, -10.99, 32.73, 11.90, 44.67,
28.72082257270813,2.72, -0.34, -0.13, -81.85, -36.50, -8.06, 32.53, 18.62, 44.01,
28.832510471343994,0.49, 0.07, -0.26, -33.26, 44.80, 0.55, 30.68, 22.35, 45.92,
28.94205093383789,-0.12, 0.14, -0.12, 25.63, -43.95, -0.92, 29.54, 22.78, 45.15,
29.051955699920654,2.68, 0.26, -0.43, 56.46, -6.96, -16.11, 30.15, 20.96, 46.51,
29.161028146743774,0.85, -0.13, -0.04, -7.75, 76.72, -0.31, 30.53, 14.84, 47.50,
29.271126747131348,-0.36, -0.22, -0.03, 89.78, -53.83, -16.05, 28.36, 12.17, 49.11,
29.381277561187744,2.20, -0.60, -0.25, -84.78, 43.58, -36.99, 32.56, 13.57, 47.11,
29.492002487182617,1.52, 0.06, -0.45, -87.16, 33.14, 14.71, 32.48, 19.07, 46.17,
29.600338220596313,-0.02, 0.29, 0.01, -62.56, 37.78, 23.01, 30.09, 20.18, 47.89,
29.711347341537476,0.55, 0.22, -0.23, 60.97, -41.63, -2.81, 31.91, 18.51, 46.31,
29.821561574935913,1.88, 0.49, -0.35, 89.42, 15.01, 23.99, 31.69, 17.08, 47.61,
29.930960416793823,0.26, 0.05, -0.06, 34.06, 4.09, -0.92, 30.35, 12.18, 49.15,
30.040997982025146,0.07, -0.19, -0.05, -28.81, -38.76, -12.21, 32.71, 10.52, 46.29,
30.15342402458191,3.02, 0.13, -0.49, -86.06, -59.02, -17.70, 34.13, 18.08, 45.30,
30.26364278793335,0.54, -0.05, -0.14, -61.40, 18.68, 14.89, 32.80, 20.85, 45.24,
30.373513221740723,-0.20, 0.03, -0.20, -6.96, -25.45, -0.43, 32.06, 22.68, 45.04,
30.483439922332764,3.03, 0.46, -0.47, 67.99, -32.23, 3.66, 32.58, 21.86, 44.46,
30.592424392700195,0.82, -0.20, -0.07, 18.43, 35.89, -6.35, 34.03, 16.54, 45.09,
30.702661991119385,-0.21, -0.15, -0.10, 60.36, -54.69, -25.51, 32.20, 13.98, 44.09,
30.81329369544983,2.69, -0.17, -0.17, -82.64, 80.75, -8.91, 33.58, 17.77, 45.65,
30.923008918762207,1.01, 0.30, -0.27, -77.94, 37.60, 14.83, 33.00, 23.02, 43.59,
31.03292417526245,-0.11, 0.11, -0.23, -7.81, -7.87, 10.01, 31.53, 23.39, 44.56,
31.143081665039062,0.97, 0.19, 0.06, 45.53, 14.83, 10.80, 33.28, 22.19, 41.92,
31.252220630645752,1.63, -0.14, -0.22, 96.92, 56.34, 13.92, 33.17, 19.69, 43.18,
31.36245822906494,0.16, -0.28, -0.10, 55.97, -3.91, -3.48, 31.51, 13.49, 45.98,
31.471635818481445,0.09, -0.13, -0.14, -43.70, -27.95, 0.61, 34.70, 11.96, 43.77,
31.58261227607727,2.43, -0.42, -0.14, -86.24, -5.13, 0.67, 33.94, 17.40, 43.51,
31.691981554031372,0.29, 0.04, -0.24, -35.22, -10.62, 12.51, 33.19, 21.02, 44.03,
31.802002906799316,-0.13, 0.05, -0.14, 18.37, -32.41, -6.23, 31.93, 21.90, 42.68,
31.911905765533447,3.50, 0.93, -0.05, 93.63, -56.95, -0.98, 32.73, 21.19, 43.53,
32.023537397384644,0.60, 0.00, -0.12, 41.56, 21.18, -9.46, 33.76, 13.01, 44.41,
32.133450746536255,-0.13, -0.18, -0.07, 67.08, -43.52, -24.23, 33.52, 10.71, 42.88,
32.24312090873718,3.04, 0.34, 0.10, -55.05, -16.91, -31.98, 34.40, 14.44, 43.60,
32.35301971435547,0.98, 0.25, -0.27, -64.58, 5.62, 16.36, 34.08, 20.34, 42.80,
32.46277666091919,-0.44, 0.05, -0.25, -0.79, -51.51, 2.20, 33.47, 21.83, 41.43,
32.57411432266235,3.94, -0.23, 0.10, -5.49, 55.54, 3.30, 35.78, 20.59, 40.17,
32.683871030807495,1.68, -0.14, 0.02, 72.33, 46.08, 17.46, 34.68, 15.54, 44.71,
32.7949104309082,0.28, -0.15, -0.06, 5.31, 10.56, 2.26, 32.92, 12.74, 43.66,
32.90557384490967,0.39, -0.28, -0.12, -11.23, -60.67, -3.78, 35.47, 13.99, 42.55,
33.0149347782135,1.87, -0.17, 0.05, -91.37, 38.82, 4.64, 35.00, 19.14, 42.70,
33.12477660179138,0.20, 0.09, -0.24, -23.80, -2.69, 20.26, 34.23, 21.44, 42.31,
33.23560833930969,-0.11, 0.12, -0.09, 42.18, -32.17, -4.70, 32.93, 22.13, 42.53,
33.34548902511597,2.94, 0.67, -0.14, 71.66, -56.70, -14.89, 33.52, 19.70, 41.59,
33.45563340187073,0.61, 0.04, -0.02, 29.30, 26.43, 3.97, 33.41, 12.56, 44.62,
33.565303802490234,-0.17, -0.13, -0.03, 47.24, -47.06, -15.63, 33.61, 10.73, 43.16,
33.67582845687866,2.21, 0.15, -0.12, -40.59, -17.52, -18.55, 34.41, 14.62, 42.48,
33.78738737106323,0.97, 0.15, -0.23, -83.86, 9.52, 5.43, 34.13, 19.29, 42.83,
33.89678120613098,-0.33, 0.04, -0.31, -6.65, -38.82, 5.31, 34.09, 21.87, 41.91,
34.006152868270874,3.06, 0.21, -0.08, -9.28, 56.46, -0.18, 35.19, 22.02, 39.66,
34.11532759666443,1.67, -0.06, 0.14, 65.86, 42.85, 26.06, 35.96, 15.65, 42.53,
34.225456953048706,0.01, -0.16, -0.17, 54.20, 18.62, 4.64, 32.98, 12.43, 43.24,
34.333658933639526,0.14, -0.21, -0.16, -40.04, -13.06, -9.89, 34.89, 11.05, 40.73,
34.443949699401855,2.21, -0.24, -0.12, -102.91, -11.17, -5.92, 34.64, 15.30, 42.25,
34.55454206466675,0.47, 0.14, -0.22, -60.85, 7.20, 11.35, 34.24, 19.23, 41.80,
34.663615226745605,-0.39, 0.08, -0.13, 22.09, -32.90, -9.28, 33.34, 21.57, 41.46,
34.77320384979248,2.56, 0.35, -0.12, 79.71, -11.90, 6.04, 35.03, 20.26, 40.23,
34.881786584854126,0.80, -0.14, -0.04, 20.02, 40.04, 4.39, 33.89, 13.65, 43.93,
34.990703105926514,-0.06, -0.11, -0.13, 49.07, -53.53, -7.26, 33.69, 10.64, 42.11,
35.10139226913452,2.70, -0.48, -0.05, -79.96, 32.04, -22.89, 35.95, 12.35, 42.29,
35.21138048171997,1.50, -0.03, 0.10, -97.11, 59.75, 17.58, 34.29, 18.32, 42.18,
35.32112407684326,0.11, 0.11, -0.25, -50.60, 10.19, 14.34, 33.57, 20.79, 41.06,
35.4302179813385,0.31, 0.12, -0.08, 39.73, -38.27, -7.57, 34.12, 20.65, 40.48,
35.53968644142151,2.06, 0.35, -0.18, 105.59, 43.95, 25.27, 34.72, 17.02, 42.58,
35.64926862716675,0.12, -0.02, -0.05, 62.93, 7.02, 2.26, 34.01, 11.50, 40.99,
35.7581353187561,-0.26, -0.06, 0.01, 16.24, -29.72, -28.69, 35.16, 10.18, 42.19,
35.86711144447327,3.40, -0.07, 1.09, -99.67, 41.81, -18.31, 34.39, 14.40, 43.07,
35.97673273086548,0.68, 0.26, -0.20, -41.87, -29.05, 12.08, 33.34, 18.92, 42.93,
36.08700704574585,-0.46, 0.10, -0.15, -7.81, -25.33, 4.09, 33.00, 19.89, 42.26,
36.19768691062927,2.56, 0.22, 0.30, 19.41, -8.61, 29.72, 34.84, 19.53, 40.64,
36.30672764778137,1.38, -0.20, 0.45, 15.93, 64.94, 15.63, 33.23, 13.06, 43.20,
36.417319774627686,0.00, -0.21, -0.12, 47.06, -5.07, 3.85, 32.32, 11.07, 44.57,
36.525869607925415,1.33, -0.46, 0.08, -10.01, -27.34, -23.50, 34.03, 11.56, 42.79,
36.634828090667725,1.71, -0.02, -0.08, -106.08, 45.96, -20.02, 35.24, 16.97, 42.18,
36.74445414543152,0.22, 0.08, -0.09, -62.44, 18.68, 17.70, 33.76, 20.02, 44.01,
36.853498220443726,0.04, 0.17, -0.18, 50.29, -29.11, -3.72, 34.11, 20.80, 40.53,
36.96259021759033,2.66, 0.81, -0.09, 87.77, -4.09, 21.06, 33.98, 19.13, 40.83,
37.07213044166565,0.53, 0.09, 0.00, 39.79, 17.21, 3.60, 33.53, 11.74, 43.88,
37.181565046310425,-0.27, -0.04, -0.14, 30.09, -54.14, -28.75, 33.94, 10.67, 43.29,
37.29058337211609,2.63, -0.24, -0.05, -49.80, -16.78, -31.68, 34.69, 15.04, 42.00,
37.40037655830383,0.91, 0.09, -0.26, -70.31, 13.24, 3.91, 34.02, 20.24, 42.32,
37.50957274436951,-0.40, 0.01, -0.27, -24.78, -4.76, 13.98, 33.56, 22.16, 43.10,
37.620078325271606,3.62, -0.08, 0.26, -24.96, 4.88, 12.27, 34.17, 21.31, 42.94,
37.730424642562866,1.23, -0.17, 0.01, 46.39, 46.39, 15.81, 34.51, 14.32, 45.03,
37.8403799533844,-0.12, -0.14, -0.24, 61.28, -36.07, 0.12, 32.93, 11.18, 44.67,
37.9511444568634,0.64, -0.31, 0.07, -54.02, 8.85, -11.11, 36.38, 11.74, 41.88,
38.06009888648987,1.93, -0.17, -0.02, -108.70, 29.11, -17.09, 35.31, 17.60, 42.82,
38.16978621482849,0.27, 0.08, -0.21, -43.88, 23.93, 16.60, 34.38, 21.00, 42.61,
38.27816462516785,0.04, 0.08, -0.20, 49.44, -28.20, -0.61, 35.14, 20.73, 41.69,
38.389211654663086,3.12, 1.08, -0.13, 89.29, 15.32, -7.08, 35.56, 19.12, 42.13,
38.50012731552124,0.65, 0.04, -0.04, 58.35, 7.57, -4.82, 34.89, 10.29, 43.41,
38.60856509208679,-0.38, -0.14, -0.04, -7.81, -39.55, -31.13, 34.96, 9.39, 43.95,
38.71874022483826,2.66, 0.26, 0.07, -69.52, 19.10, -50.05, 36.07, 12.71, 43.91,
38.82944107055664,0.98, 0.03, -0.29, -74.77, 7.02, 20.45, 34.42, 18.47, 44.70,
38.938950300216675,-0.11, 0.01, -0.28, -42.30, 19.41, 9.09, 34.16, 20.94, 43.93,
39.049524784088135,1.11, 0.19, 0.26, 84.47, 8.85, 4.88, 35.63, 20.64, 42.18,
39.15916728973389,1.80, -0.07, 0.11, 64.27, 65.06, 21.67, 34.48, 13.07, 44.89,
39.26831245422363,-0.08, -0.26, -0.07, 25.15, 32.29, -4.88, 33.40, 10.96, 43.97,
39.37679123878479,0.02, -0.13, -0.06, -33.26, -26.25, -16.66, 34.57, 12.22, 43.16,
39.48668885231018,2.31, -0.55, -0.13, -104.86, -49.01, 16.85, 34.88, 16.53, 43.25,
39.597339391708374,0.60, 0.09, -0.14, -83.50, 16.78, 18.43, 34.48, 21.47, 42.36,
39.70687460899353,-0.44, -0.03, -0.15, 5.62, -40.10, -4.94, 34.57, 23.01, 41.36,
39.81680488586426,2.47, 0.50, -0.39, 74.95, -21.36, -19.59, 34.85, 22.34, 40.58,
39.92691373825073,0.73, -0.12, -0.05, 41.20, 33.57, 8.36, 33.26, 14.65, 44.69,
40.03709435462952,-0.12, -0.15, -0.21, 35.64, -40.16, -18.86, 32.89, 10.94, 44.63,
40.14682745933533,2.62, -0.57, 0.06, -63.35, 11.35, -31.92, 35.38, 11.94, 42.54,
40.25758719444275,1.43, 0.11, 0.12, -100.77, 24.05, 4.27, 35.74, 19.02, 41.88,
40.367777824401855,0.24, 0.22, -0.19, -66.89, 19.59, 1.46, 34.44, 21.78, 40.98,
40.47895169258118,0.54, 0.17, -0.09, 74.34, -30.27, -0.73, 35.79, 22.08, 39.78,
40.58908247947693,1.97, 0.21, 0.05, 104.25, 35.89, 31.98, 35.88, 16.21, 42.26,
40.697997093200684,-0.18, -0.14, -0.04, 36.38, 10.44, 13.12, 35.22, 11.29, 42.42,
40.8070330619812,-0.05, -0.04, 0.00, 37.54, -54.14, -15.87, 35.96, 10.97, 41.41,
40.91754364967346,3.20, -0.40, -0.01, -65.31, 26.61, 6.10, 36.06, 14.70, 42.93,
41.02673292160034,0.55, 0.11, -0.18, -45.35, -23.07, 24.90, 34.11, 18.30, 43.46,
41.13709092140198,-0.47, 0.11, -0.09, -33.69, -26.49, -9.70, 33.12, 20.20, 43.26,
41.249380111694336,2.30, 0.59, 0.38, 18.37, -28.99, 15.38, 35.38, 20.80, 41.81,
41.35780882835388,1.27, -0.12, 0.25, 29.30, 25.76, 16.85, 34.99, 15.88, 43.25,
41.46833658218384,-0.01, -0.20, -0.13, 23.50, -9.40, -2.32, 33.35, 14.90, 43.35,
41.5781683921814,1.28, -0.60, 0.20, 6.90, -33.02, -22.03, 35.06, 16.47, 42.75,
41.68808460235596,1.58, 0.05, 0.06, -110.60, 43.95, 3.36, 35.62, 19.75, 41.02,
41.79809284210205,0.24, 0.08, -0.30, -27.65, 14.10, 9.34, 34.13, 22.67, 41.65,
41.9079065322876,0.08, 0.19, -0.27, 70.86, -32.84, -7.51, 34.95, 21.41, 42.27,
42.01749324798584,2.52, 0.50, -0.12, 94.79, 12.76, 0.98, 33.54, 17.94, 43.91,
42.12831926345825,0.59, 0.02, 0.02, 51.15, 7.26, 0.24, 33.69, 12.30, 43.08,
42.23753595352173,-0.30, -0.16, -0.07, 62.32, -66.47, -24.17, 34.47, 9.17, 42.02,
42.3474485874176,2.71, 0.48, 0.20, -56.21, -5.00, -48.22, 35.94, 11.30, 41.70,
42.45591855049133,1.13, 0.18, -0.09, -84.53, 0.12, 8.61, 35.21, 16.88, 42.57,
42.56574249267578,-0.02, 0.16, -0.28, -22.03, 21.91, -6.71, 34.62, 18.65, 42.48,
42.67629599571228,2.83, 0.09, -0.09, 65.43, 47.67, 3.85, 34.25, 18.24, 42.40,
42.78460478782654,1.72, -0.10, 0.05, 36.07, 48.10, 7.32, 35.03, 13.28, 42.53,
42.89531755447388,-0.27, -0.19, -0.13, 38.15, 0.24, 0.85, 34.14, 11.41, 43.42,
43.00489163398743,0.35, -0.25, -0.07, -36.19, -13.98, -6.04, 36.19, 9.75, 41.02,
43.11406183242798,2.08, 0.09, -0.07, -120.42, 4.39, -15.14, 35.42, 15.59, 41.52,
43.2254376411438,0.38, 0.05, -0.26, -82.95, 4.70, 25.76, 35.06, 20.08, 42.61,
43.333765745162964,-0.16, -0.01, -0.23, 11.96, -46.45, -16.60, 36.23, 21.91, 39.97,
43.4435613155365,3.12, 0.81, -0.12, 73.06, -5.98, -7.51, 35.80, 20.69, 40.84,
43.55386304855347,0.57, -0.08, -0.06, 48.71, 24.35, -13.98, 34.46, 14.82, 42.91,
43.66354322433472,-0.16, -0.16, -0.27, 2.44, -13.61, -18.80, 33.70, 12.78, 44.17,
43.77371835708618,2.39, 0.54, 0.26, -49.01, -10.68, -28.75, 36.17, 14.51, 42.47,
43.883142948150635,1.36, 0.08, 0.00, -79.04, 10.93, -5.55, 35.57, 19.67, 41.76,
43.992910623550415,0.12, 0.09, -0.19, -41.38, 27.47, 1.53, 35.03, 22.24, 41.19,
44.102577447891235,0.54, 0.16, -0.24, 59.20, -24.35, -2.62, 36.71, 21.86, 41.03,
44.21385216712952,1.79, -0.19, 0.06, 85.02, 63.84, 49.13, 36.06, 17.53, 40.72,
44.32361340522766,0.20, 0.09, -0.12, 65.61, 22.95, 6.41, 33.79, 14.54, 43.36,
44.43441414833069,0.10, -0.04, -0.16, -28.26, -35.46, -13.79, 34.46, 13.79, 42.98,
44.54391694068909,2.57, -0.34, -0.23, -50.23, -24.78, -13.92, 35.49, 18.33, 42.69,
44.654165506362915,0.77, 0.11, -0.16, -43.58, 10.99, -1.95, 34.33, 21.62, 43.32,
44.7644317150116,-0.43, 0.13, -0.35, 23.74, -48.34, 4.03, 35.10, 22.52, 42.83,
44.874523878097534,1.72, 0.26, -0.21, 43.33, -15.56, -3.23, 35.97, 19.74, 43.38,
44.983991861343384,0.86, -0.28, -0.02, 59.51, 26.92, 6.77, 35.66, 13.17, 44.75,
45.09391522407532,0.01, -0.28, -0.22, -2.81, 4.03, -11.60, 33.52, 11.25, 44.78,
45.204062938690186,1.62, -0.73, 0.52, -4.76, -66.71, -17.15, 36.34, 11.80, 44.37,
45.31384015083313,1.45, -0.02, -0.01, -102.29, 64.94, 0.49, 37.06, 17.19, 43.97,
45.42386794090271,0.41, 0.10, -0.14, -75.74, 2.62, 1.65, 34.22, 23.51, 43.57,
45.53438329696655,0.08, 0.17, -0.18, 54.50, -37.29, -1.59, 35.82, 23.62, 42.97,
45.64432883262634,1.97, 0.93, -0.14, 77.88, 5.31, 21.36, 36.22, 20.14, 43.07,
45.75333762168884,0.32, 0.18, -0.05, 78.80, 14.53, -12.76, 34.24, 13.43, 46.24,
45.86231279373169,0.05, -0.10, 0.05, -2.56, -38.57, -20.51, 34.94, 10.34, 45.61,
45.97230386734009,3.09, -0.19, -0.22, -43.82, -31.92, -30.94, 37.24, 14.55, 45.62,
46.083218812942505,0.70, 0.11, -0.19, -63.60, 7.81, 11.84, 36.52, 20.94, 44.07,
46.19237041473389,-0.43, 0.02, -0.38, -8.79, -34.12, -3.60, 35.10, 23.88, 43.16,
46.301740407943726,1.24, 0.17, 0.19, 64.39, -12.45, 12.63, 38.17, 22.73, 41.47,
46.41152358055115,2.11, 0.04, 0.03, 108.58, 38.76, 37.05, 36.50, 18.07, 43.42,
46.5206937789917,-0.37, 0.05, -0.30, 58.53, 31.92, 18.01, 35.52, 11.80, 44.93,
46.6303973197937,0.01, -0.17, 0.14, 29.30, -79.59, -24.90, 35.11, 12.54, 43.65,
46.74057579040527,3.25, -0.35, -0.55, -43.52, 3.36, -29.97, 35.56, 17.58, 44.62,
46.850342750549316,0.59, 0.07, -0.13, -32.71, -14.65, 19.78, 34.01, 22.75, 43.74,
46.96104121208191,-0.40, 0.18, -0.24, -5.49, -23.99, -4.27, 32.74, 24.61, 43.86,
47.071449756622314,1.84, 0.22, 0.26, 45.10, -65.43, 45.04, 34.35, 22.92, 43.91,
47.180497884750366,1.10, -0.23, 0.11, 13.79, 112.06, 9.70, 34.47, 15.93, 44.59,
47.28925967216492,-0.15, -0.24, -0.12, 43.95, -2.93, 0.31, 32.12, 13.61, 46.91,
47.40048933029175,1.36, -0.58, -0.12, -18.92, -56.82, -16.48, 33.44, 13.42, 46.04,
47.509785652160645,1.67, -0.10, -0.12, -103.03, 37.41, 1.59, 34.08, 18.82, 44.73,
47.619885206222534,0.21, 0.10, -0.24, -45.90, -2.87, 7.02, 33.54, 23.21, 45.47,
47.73040986061096,0.16, 0.03, -0.19, 33.14, -45.53, 2.32, 35.05, 23.41, 42.11,
47.84003019332886,2.70, 0.79, -0.19, 77.15, -0.55, -5.25, 35.28, 20.98, 42.33,
47.949562072753906,0.48, -0.09, -0.06, 63.23, 22.16, -7.02, 34.17, 14.25, 44.54,
48.059821128845215,-0.17, -0.11, -0.19, 13.73, -50.29, -28.81, 32.87, 13.00, 44.12,
48.17132616043091,2.48, 0.31, 0.26, -29.91, -15.26, -33.08, 35.94, 14.20, 42.71,
48.28109574317932,1.24, 0.17, -0.11, -86.12, 23.32, 17.33, 33.73, 21.11, 43.38,
48.38984227180481,0.03, 0.14, -0.27, -35.52, 8.30, 12.45, 33.84, 22.89, 43.03,
48.50049829483032,0.82, 0.35, -0.13, 117.37, -10.50, -2.01, 35.06, 20.68, 41.55,
48.610533475875854,1.76, 0.08, -0.16, 86.85, 47.79, 38.57, 35.42, 16.13, 42.25,
48.72021484375,0.03, 0.07, -0.09, 80.02, 16.60, -8.06, 32.58, 12.40, 44.75,
48.83032727241516,0.04, -0.20, -0.16, -22.58, -33.20, -15.08, 33.65, 8.80, 43.69,
48.93948245048523,2.49, -0.41, -0.07, -88.50, -30.70, 0.12, 34.91, 16.61, 43.66,
49.04994487762451,0.53, -0.06, -0.29, -68.12, 13.67, 18.92, 34.13, 20.52, 42.92,
49.16148614883423,-0.24, 0.10, -0.17, 32.35, -40.77, -1.59, 35.03, 22.47, 41.86,
49.27101945877075,1.69, 0.06, -0.39, 65.73, -18.80, 13.55, 35.35, 21.87, 43.92,
49.38117337226868,0.89, -0.14, -0.11, 66.59, 21.24, 8.91, 35.17, 15.50, 44.37,
49.489705324172974,0.10, -0.13, -0.12, 10.50, -10.01, -10.13, 33.59, 11.57, 43.55,
49.60101771354675,0.91, -0.69, 0.05, -19.17, -43.82, -28.02, 35.25, 12.74, 43.03,
49.71049451828003,1.69, -0.26, 0.03, -88.20, -2.44, 28.56, 34.31, 20.48, 44.79,
49.82023072242737,-0.01, 0.07, -0.37, -52.49, 33.26, 18.49, 34.34, 21.64, 43.12,
49.930219411849976,-0.06, 0.18, -0.18, 45.35, -51.33, -10.01, 34.83, 23.36, 42.42,
50.039395570755005,3.55, 1.02, -0.13, 72.14, -12.02, -4.58, 35.61, 21.19, 40.37,
50.149965047836304,0.67, 0.02, 0.00, 52.73, 25.02, -16.78, 34.46, 16.06, 42.85,
50.259748697280884,-0.15, -0.15, -0.22, 8.30, -36.50, -31.98, 32.85, 13.17, 43.77,
50.36956167221069,2.69, -0.91, -0.20, -59.69, 23.86, -25.94, 36.01, 15.88, 44.40,
50.48048686981201,1.52, -0.09, 0.09, -96.98, 0.37, 14.34, 35.85, 20.84, 42.93,
50.58990406990051,0.28, 0.11, -0.20, -83.44, 26.67, -3.97, 34.90, 23.77, 40.86,
50.69900918006897,0.12, 0.08, -0.08, 48.52, -34.42, -1.65, 35.56, 24.45, 39.76,
50.80871391296387,2.34, 0.93, -0.35, 123.29, -11.78, 42.91, 34.75, 24.40, 42.49,
50.91836595535278,0.23, -0.06, -0.03, 72.02, -6.16, -14.16, 34.25, 15.77, 44.67,
51.02804946899414,-0.20, 0.09, -0.16, 15.38, -41.56, -31.86, 34.03, 13.38, 44.65,
51.138264656066895,2.35, 0.11, -0.05, -31.92, 30.27, -47.36, 36.67, 16.19, 43.03,
51.24786853790283,0.92, -0.01, -0.16, -70.50, 12.51, 28.32, 34.85, 18.98, 42.99,
51.35836362838745,-0.06, 0.09, -0.29, -49.32, 38.09, -5.19, 34.40, 20.95, 42.26,
51.468154191970825,0.71, 0.07, -0.19, 77.58, -29.05, 9.77, 35.13, 21.02, 41.92,
51.57699275016785,1.91, -0.09, -0.06, 72.81, 67.02, 70.37, 35.62, 17.18, 41.53,
51.68572521209717,-0.20, -0.09, -0.05, 28.93, 17.27, 4.70, 34.72, 11.29, 43.05,
51.79638981819153,0.02, -0.09, -0.00, 7.26, -35.10, -28.63, 35.57, 11.29, 43.25,
51.90620827674866,2.80, -0.59, -0.15, -79.90, 16.78, 2.81, 35.41, 17.03, 43.31,
52.01620125770569,0.35, 0.13, -0.24, -44.37, -13.24, 6.41, 35.45, 21.79, 42.10,
52.125890016555786,-0.36, 0.12, -0.10, -8.97, -25.39, 4.03, 34.67, 23.58, 42.24,
52.23556590080261,2.08, 0.28, -0.24, 83.13, -36.19, 21.18, 36.01, 22.46, 42.55,
52.346004486083984,0.71, -0.34, -0.11, 60.61, 31.98, 4.09, 36.01, 16.69, 43.84,
52.45587134361267,0.15, -0.19, -0.19, 50.78, -31.19, -7.26, 34.34, 11.88, 44.40,
52.56577777862549,1.25, -0.53, -0.03, 12.45, 2.50, -21.48, 36.56, 12.73, 43.71,
52.6761577129364,1.32, 0.16, 0.01, -106.20, 60.42, -4.52, 34.23, 19.32, 44.18,
52.78495669364929,0.34, 0.12, -0.20, -88.75, 29.36, -2.50, 33.22, 22.33, 44.92,
52.89482593536377,0.06, 0.08, -0.14, 42.30, -53.59, -2.99, 34.18, 24.44, 43.09,
53.004170656204224,2.36, 0.95, -0.13, 85.94, 11.47, 0.06, 35.51, 22.30, 42.91,
53.11346983909607,0.37, 0.04, -0.04, 54.87, 12.15, -9.16, 34.97, 14.90, 44.85,
53.22265410423279,-0.26, -0.18, -0.14, -16.78, -12.27, -28.69, 34.53, 12.51, 46.06,
53.3330340385437,2.67, -0.01, -0.14, -60.30, 18.13, -34.97, 35.35, 16.66, 44.56,
53.44216012954712,1.00, 0.06, -0.24, -71.66, -2.62, 21.48, 34.07, 21.74, 44.25,
53.55114269256592,0.14, 0.02, -0.06, -54.87, -2.20, -6.90, 33.35, 23.24, 43.33,
53.66089200973511,1.64, 0.22, 0.22, 85.14, -36.25, -5.43, 35.62, 24.12, 40.88,
53.770540952682495,1.95, -0.11, 0.07, 81.54, 63.96, 24.35, 36.07, 21.64, 43.02,
53.88093185424805,-0.01, -0.10, -0.06, 32.90, 6.90, 12.82, 34.62, 15.58, 44.38,
53.991206407547,0.17, -0.09, -0.03, -9.16, -29.91, -10.80, 35.45, 14.06, 43.25,
54.09984588623047,2.76, -0.44, -0.22, -84.29, 9.58, 9.09, 35.69, 17.65, 43.58,
54.209643840789795,0.54, 0.07, -0.22, -50.05, 8.67, 23.68, 33.70, 22.35, 43.36,
54.319661378860474,-0.38, 0.08, -0.28, 11.05, -24.72, -5.13, 33.14, 22.81, 42.19,
54.42996382713318,2.78, 0.48, 0.37, 13.98, 2.08, -1.77, 34.51, 21.69, 41.77,
54.54036045074463,1.10, -0.22, -0.05, 83.25, 17.52, 12.63, 34.53, 17.36, 43.03,
54.649863958358765,0.40, -0.17, -0.07, 27.40, 5.92, 13.00, 33.98, 10.39, 42.54,
54.75952744483948,0.51, -0.19, 0.09, -25.15, -54.14, -10.56, 36.29, 11.98, 41.31,
54.86906099319458,2.03, -0.20, 0.08, -86.79, 37.66, 1.71, 35.38, 17.32, 42.88,
54.978779792785645,0.29, 0.17, -0.20, -47.55, 8.00, 22.22, 34.95, 19.51, 41.31,
55.08943724632263,-0.17, 0.13, -0.16, 31.37, -28.08, -18.31, 34.06, 20.34, 40.94,
55.19919538497925,3.54, 0.89, -0.09, 78.49, 0.92, -42.48, 34.28, 18.88, 43.37,
55.30911731719971,0.70, -0.04, 0.00, 55.66, 13.24, -5.49, 35.06, 12.81, 42.46,
55.41890835762024,0.04, -0.07, -0.23, 43.03, -51.33, -29.36, 34.20, 8.96, 41.28,
55.530057430267334,2.78, -1.02, 0.20, -1.22, 7.26, -36.68, 36.65, 10.35, 40.14,
55.63967728614807,1.36, 0.14, -0.02, -105.10, 2.38, 23.56, 36.15, 16.37, 40.94,
55.750571966171265,0.00, 0.18, -0.32, -66.59, 22.22, -6.16, 35.29, 19.17, 40.48,
55.8611855506897,0.18, 0.06, -0.03, 28.44, -22.46, 7.39, 37.89, 19.68, 38.29,
55.970046043395996,2.39, 0.50, 0.40, 102.84, -2.08, 32.90, 37.40, 19.60, 39.43,
56.07921481132507,0.70, 0.04, -0.02, 21.24, 29.85, 3.72, 36.63, 11.55, 39.83,
56.18914461135864,-0.39, -0.03, 0.06, -3.91, 14.10, -4.09, 35.58, 12.48, 40.93,
56.30105948448181,3.03, 0.38, 0.29, -16.05, -40.34, -38.57, 36.27, 14.78, 41.77,
56.410080909729004,1.06, 0.14, 0.12, -101.20, 54.26, 20.08, 36.04, 19.49, 41.33,
56.51877522468567,-0.01, 0.19, -0.14, -46.02, 28.99, -10.07, 34.48, 22.56, 42.52,
56.63145089149475,0.79, 0.26, -0.41, 39.43, 21.61, -15.26, 34.66, 23.79, 40.55,
56.74012112617493,1.84, 0.15, -0.01, 107.67, 5.43, 40.89, 35.13, 19.25, 42.26,
56.84985136985779,-0.57, -0.12, -0.02, 24.35, 14.40, 6.53, 34.29, 14.49, 43.14,
56.95984363555908,0.03, -0.00, 0.08, 17.40, -57.80, -13.31, 34.74, 14.53, 43.64,
57.06905007362366,2.84, -0.35, -0.08, -81.30, 32.47, 1.22, 34.62, 19.87, 44.58,
57.17852997779846,0.67, -0.07, -0.23, -44.56, -5.74, 23.32, 33.30, 23.22, 43.93,
57.28928470611572,-0.35, 0.01, -0.21, 0.06, -13.73, 4.46, 32.70, 24.46, 44.46,
57.39905571937561,3.42, 0.39, -0.10, 44.62, -52.67, 42.48, 34.86, 22.33, 42.75,
57.50809645652771,1.67, -0.03, 0.17, 73.73, 83.62, 6.53, 34.39, 16.44, 44.57,
57.61754107475281,0.36, -0.08, -0.11, 28.69, 8.30, 2.50, 33.92, 12.59, 44.81,
57.727105379104614,0.25, -0.12, -0.11, 11.05, -51.57, -22.77, 34.61, 14.44, 44.42,
57.83694934844971,2.18, -0.46, -0.13, -93.02, 13.61, 27.65, 34.62, 18.14, 45.28,
57.94738554954529,0.03, 0.01, -0.25, -43.76, -7.51, 19.17, 34.25, 20.70, 43.04,
58.05653166770935,-0.18, 0.07, -0.11, 18.01, -26.49, 0.12, 33.64, 22.86, 43.30,
58.16718769073486,3.22, 0.90, -0.29, 75.26, -38.82, -42.85, 36.24, 19.96, 42.38,
58.27739977836609,0.62, -0.18, -0.11, 49.87, 26.12, -6.53, 34.41, 13.04, 45.31,
58.3873815536499,-0.15, -0.18, -0.11, 11.60, -15.26, -26.86, 33.31, 11.02, 45.61,
58.49673891067505,2.99, -0.38, -0.11, -37.60, -47.73, -32.53, 35.80, 13.26, 45.10,
58.607927322387695,1.36, 0.14, 0.01, -110.53, 63.90, 21.18, 35.75, 19.75, 44.64,
58.71687150001526,-0.05, 0.26, -0.11, -49.99, 4.94, -1.10, 33.98, 21.59, 44.21,
58.82705640792847,0.62, 0.17, -0.29, 70.19, -48.03, -6.35, 36.06, 21.94, 42.32,
58.93652892112732,1.87, 0.13, -0.21, 78.00, 26.61, 33.14, 35.62, 17.91, 44.02,
59.04699778556824,0.08, -0.17, -0.00, 45.78, 4.39, 12.51, 35.60, 12.83, 42.46,
59.156222343444824,-0.33, -0.03, 0.07, 27.22, -58.47, -37.35, 35.96, 13.04, 42.44,
59.26602101325989,2.75, -0.25, 0.18, -106.08, 39.00, -41.38, 37.68, 15.95, 41.77,
59.375839948654175,0.48, -0.15, 0.04, -62.01, -13.73, 37.41, 36.06, 21.22, 41.10,
59.486905574798584,-0.22, 0.10, -0.24, -5.19, -50.23, -23.13, 35.29, 22.78, 39.64,
59.597139835357666,2.34, 0.13, 0.01, 71.96, 43.52, 30.94, 38.46, 21.18, 38.09,
59.70667386054993,1.46, -0.11, 0.21, 43.21, 38.27, 41.75, 36.35, 15.53, 43.19,
59.81724977493286,1.03, -0.24, -0.26, 8.91, 64.03, 14.65, 35.55, 10.44, 43.69,
59.925692558288574,0.91, -0.37, 0.47, 40.10, -57.68, -27.16, 35.21, 13.02, 45.64,
60.03624653816223,1.71, -0.18, -0.02, -90.52, 46.69, 29.85, 35.89, 16.85, 45.29,
60.145389556884766,0.29, 0.17, -0.18, -33.63, 11.96, 3.91, 34.97, 17.94, 44.85,
60.25578498840332,0.28, 0.23, -0.15, 19.90, -40.10, 1.10, 34.33, 21.17, 44.41,
60.36640548706055,3.03, 1.27, -0.18, 70.31, 12.94, 1.16, 35.95, 18.24, 42.64,
60.47566366195679,0.56, -0.03, -0.15, 40.65, 13.73, -21.30, 34.36, 12.44, 45.34,
60.58579087257385,-0.25, -0.03, -0.16, 8.97, -30.76, -51.27, 33.46, 11.67, 44.35,
60.69524955749512,3.56, -0.41, -0.13, -67.20, -5.49, -33.26, 36.66, 13.51, 44.21,
60.80613136291504,1.39, 0.25, -0.08, -70.01, 13.49, 28.26, 35.58, 19.27, 43.57,
60.91439747810364,-0.05, 0.02, -0.30, -31.01, 28.87, -3.17, 33.58, 21.87, 43.14,
61.02558469772339,0.42, 0.18, -0.24, 53.22, -31.07, -9.22, 35.16, 21.25, 41.28,
61.13614797592163,1.96, 0.39, -0.30, 93.14, 70.74, 10.01, 35.83, 18.95, 42.64,
61.24622106552124,0.17, -0.09, -0.08, 51.57, 15.08, -7.75, 34.19, 13.88, 44.15,
61.354652404785156,-0.15, -0.11, 0.17, -37.96, -34.30, -15.63, 34.27, 11.62, 44.08,
61.464972257614136,2.79, -0.05, -0.21, -53.41, -5.49, -9.52, 34.78, 15.71, 44.23,
61.57451009750366,0.74, 0.03, -0.17, -66.83, -4.03, 7.26, 33.64, 20.45, 43.33,
61.68477392196655,-0.34, 0.06, -0.23, -30.76, -16.11, -5.19, 33.35, 24.16, 43.16,
61.79442834854126,3.51, 0.19, -0.10, 14.04, 4.21, 24.05, 35.40, 22.56, 41.17,
61.905160427093506,1.81, -0.02, 0.11, 104.74, 9.83, 14.71, 35.50, 16.83, 43.68,
62.01445436477661,1.27, -0.29, -0.08, -2.01, 40.16, -2.08, 35.05, 12.33, 42.49,
62.12466287612915,0.32, -0.27, -0.10, 15.44, -81.85, -11.35, 35.61, 14.78, 43.29,
62.234580993652344,2.10, -0.36, -0.09, -83.86, 15.01, 17.52, 36.07, 18.53, 44.34,
62.34464883804321,-0.14, -0.04, -0.14, -39.49, 9.83, 25.82, 35.85, 20.94, 42.24,
62.45484399795532,-0.11, 0.14, -0.11, 36.93, -36.13, -2.08, 35.47, 22.24, 40.73,
62.5660343170166,2.91, 0.95, -0.29, 40.77, 5.31, -30.76, 36.84, 20.36, 40.66,
62.675023317337036,0.79, -0.22, 0.02, 64.88, -4.09, -7.39, 35.91, 14.04, 43.46,
62.78467035293579,-0.16, -0.04, -0.19, 4.09, -22.83, -20.20, 34.84, 11.88, 43.02,
62.895183086395264,2.47, -0.42, -0.42, -23.44, 60.91, -43.88, 38.34, 13.95, 40.04,
63.00535798072815,1.45, 0.18, -0.01, -86.98, -11.90, 21.12, 35.56, 20.83, 43.07,
63.1161675453186,0.33, 0.03, -0.32, -56.27, 51.33, -3.72, 35.00, 21.50, 42.70,
63.22478699684143,0.65, 0.28, -0.01, 61.58, -47.36, 6.47, 35.56, 22.08, 40.97,
63.335230350494385,2.01, -0.04, -0.02, 62.01, 72.94, 18.49, 36.88, 18.52, 41.15,
63.445603370666504,0.06, -0.07, 0.00, 46.75, 9.22, -4.21, 34.34, 15.05, 43.54,
63.555970430374146,0.02, -0.08, -0.14, -30.58, -37.17, -22.58, 34.33, 13.27, 44.23,
63.66693925857544,2.79, -0.44, -0.20, -85.82, -12.33, 17.15, 36.35, 19.74, 43.66,
63.776565074920654,0.57, 0.12, -0.16, -50.05, -5.19, 20.02, 35.25, 22.92, 42.64,
63.88722276687622,-0.54, 0.08, -0.21, 0.49, -27.83, 6.53, 34.77, 23.63, 42.54,
63.99735760688782,2.69, 0.24, 0.23, 16.30, -3.11, 13.18, 35.80, 22.41, 41.22,
64.10834670066833,1.30, -0.13, 0.02, 74.52, 16.60, 13.18, 35.50, 17.54, 43.59,
64.2169086933136,0.10, -0.12, -0.05, -18.98, 11.23, -24.41, 34.88, 13.09, 42.57,
64.32671785354614,0.16, -0.83, -0.20, -43.03, -54.50, -34.85, 36.88, 14.58, 42.59,
64.43689823150635,1.73, -0.32, 0.05, -124.76, 22.89, 17.70, 36.08, 20.37, 44.08,
64.54645323753357,-0.30, 0.07, -0.27, -111.15, 34.91, 54.26, 35.44, 23.73, 40.34,
64.6568534374237,0.17, 0.12, 0.03, 88.44, -67.20, -13.73, 35.13, 24.07, 40.59,
64.76776266098022,2.30, 0.55, -0.07, 94.24, 13.98, 16.36, 36.82, 21.40, 40.43,
64.87878727912903,0.63, 0.03, -0.17, 52.00, 40.95, -10.13, 35.30, 15.00, 41.87,
64.99019527435303,-0.28, -0.05, -0.17, -19.35, -7.08, -22.40, 33.85, 15.54, 44.78,
65.10129189491272,2.60, -0.45, -0.33, -42.60, -17.52, -11.84, 34.72, 19.64, 43.81,
65.21057343482971,0.92, 0.02, -0.24, -53.89, -8.00, 24.11, 35.08, 23.65, 42.80,
65.32089495658875,-0.25, 0.08, -0.31, -13.98, -45.10, -3.36, 35.77, 24.90, 40.67,
65.43258690834045,3.14, 0.14, -0.17, 33.63, 39.25, 42.54, 39.23, 23.57, 37.77,
65.54214024543762,1.42, -0.01, 0.10, 89.23, 9.28, 18.07, 37.81, 18.60, 40.55,
65.65200686454773,0.00, -0.17, -0.13, 26.43, 77.03, 9.34, 37.52, 12.99, 42.66,
65.76056742668152,0.25, -0.10, -0.05, 20.14, -46.02, -40.04, 38.94, 12.50, 40.17,
65.87065505981445,2.37, -0.27, 0.23, -73.85, -11.11, 10.19, 37.61, 16.44, 41.08,
65.98056817054749,0.94, -0.17, -0.11, -92.29, 35.28, 79.47, 39.17, 17.35, 38.72,
66.09120059013367,-0.02, -0.01, 0.06, 88.07, -67.87, -34.85, 39.21, 19.67, 38.49,
66.20122146606445,3.79, 1.11, -0.03, 61.34, 4.46, -14.34, 38.26, 18.01, 41.19,
66.3097472190857,-0.22, -0.25, 0.05, 59.20, -13.43, -5.31, 38.61, 11.44, 40.20,
66.41940450668335,-0.08, -0.00, -0.24, -48.46, 7.69, -52.92, 38.88, 11.28, 39.89,
66.53003430366516,3.53, -0.67, 0.44, 56.40, 30.21, -32.78, 38.23, 15.22, 41.48,
66.63990426063538,1.10, -0.01, 0.01, -81.12, 54.20, 26.67, 38.22, 18.05, 39.84,
66.75065565109253,-0.79, -0.04, -0.31, -23.62, -10.50, -33.57, 37.38, 19.80, 39.60,
66.86047554016113,1.05, 0.14, 0.21, -18.92, 120.24, 25.57, 39.18, 20.12, 37.30,
66.97069001197815,1.93, -0.09, -0.02, 95.34, 14.28, 47.91, 36.07, 20.32, 42.74,
67.08088731765747,-0.54, 0.05, -0.29, 29.36, 8.06, 18.31, 35.11, 12.85, 42.43,
67.1905152797699,-0.47, -0.03, -0.26, -2.81, -21.42, -19.29, 33.26, 16.49, 45.08,
67.30219650268555,2.55, -0.33, -0.09, -86.49, 23.62, 2.01, 34.16, 18.77, 44.60,
67.41255760192871,0.59, -0.01, -0.23, -47.67, -7.39, 19.17, 34.09, 21.36, 43.73,
67.52247500419617,-0.36, 0.19, -0.13, 0.98, -45.96, -3.91, 33.90, 22.52, 42.03,
67.63292121887207,1.73, -0.08, -0.07, 35.40, -33.20, 17.21, 36.36, 21.34, 40.83,
67.74267888069153,1.11, -0.20, 0.10, 70.25, 19.47, 9.64, 36.10, 13.46, 42.86,
67.85114789009094,0.24, -0.14, -0.14, 1.34, 55.60, 0.12, 34.56, 11.35, 43.74,
67.96084403991699,0.73, -0.51, 0.10, -6.71, -31.13, -15.20, 36.98, 13.33, 43.15,
68.07117557525635,1.94, -0.12, 0.21, -106.93, 17.76, 13.49, 35.35, 17.57, 44.24,
68.18068146705627,0.48, 0.09, -0.39, -33.02, 16.66, 18.86, 35.56, 19.53, 41.86,
68.2899100780487,0.23, -0.01, -0.03, 53.71, -44.25, -4.15, 36.40, 20.36, 41.91,
68.40305733680725,2.19, 0.70, -0.15, 83.86, 10.50, 15.69, 37.22, 19.43, 42.54,
68.51184821128845,0.36, 0.05, -0.02, 45.65, -1.16, -7.69, 36.73, 12.05, 43.27,
68.6218330860138,-0.33, -0.24, -0.06, 60.61, -56.15, -52.73, 36.76, 11.00, 41.24,
68.73173642158508,2.62, 0.54, -0.17, -37.84, 14.22, -15.63, 36.83, 13.98, 45.08,
68.84206056594849,1.11, -0.15, -0.05, -76.90, -28.14, 36.62, 37.11, 16.88, 44.25,
68.95139622688293,-0.52, 0.05, -0.27, -63.05, -24.96, -34.06, 36.85, 19.08, 43.98,
69.06223964691162,0.61, -0.12, 0.11, 14.22, 0.37, -5.55, 41.15, 22.36, 37.10,
69.1714289188385,1.85, -0.20, 0.10, 80.14, 3.85, 57.86, 37.35, 18.82, 42.27,
69.28089332580566,2.43, -0.51, -0.50, -132.26, 141.78, -2.38, 37.35, 13.07, 41.65,
69.3908679485321,0.09, -0.04, 0.07, -84.47, 30.52, 5.74, 37.94, 15.59, 41.74,
69.50143694877625,2.97, -0.22, -0.04, -33.94, -18.01, 10.01, 37.28, 19.70, 43.04,
69.61226224899292,0.97, -0.07, -0.57, -98.82, 80.51, 34.36, 36.10, 22.06, 41.63,
69.72200393676758,-0.13, 0.11, -0.09, 57.13, -88.20, -13.24, 35.05, 22.94, 42.19,
69.83170557022095,2.38, 0.35, -0.16, -1.65, 16.30, -22.03, 35.50, 23.12, 43.75,
69.94046592712402,1.44, -0.12, 0.02, 87.22, 11.47, 14.77, 34.90, 16.22, 43.84,
70.04943466186523,0.12, 0.02, 0.12, -93.08, 64.15, -47.30, 34.01, 13.38, 44.23,
70.16002917289734,0.35, -0.45, -0.54, -67.93, 15.01, -2.99, 36.66, 14.04, 42.46,
70.26943635940552,1.99, -0.26, 0.12, -62.19, 4.46, 2.38, 34.00, 18.76, 44.74,
70.37966680526733,0.04, 0.03, -0.41, -29.60, 38.70, 16.17, 33.63, 21.31, 44.07,
70.4904432296753,-0.00, 0.11, -0.12, 24.66, -42.18, -2.01, 32.09, 23.80, 44.21,
70.59881138801575,2.85, 0.57, -0.11, 39.86, 22.03, -7.81, 34.84, 21.47, 42.99,
70.7109763622284,0.83, -0.19, -0.03, 74.40, 1.89, -17.64, 34.08, 15.61, 43.96,
70.82053446769714,-0.32, -0.21, -0.23, -1.10, -26.12, -14.40, 33.51, 13.78, 45.01,
70.93034601211548,2.18, 0.10, -0.20, -53.53, 29.30, -24.72, 36.08, 15.14, 42.21,
71.03988480567932,1.31, 0.05, -0.06, -59.20, 7.32, -2.38, 34.48, 20.10, 44.41,
71.15129661560059,0.49, -0.04, -0.61, -25.15, 58.29, 3.91, 34.16, 21.70, 43.62,
71.26130056381226,0.67, 0.28, -0.21, 111.94, -57.43, 5.62, 35.03, 20.86, 43.10,
71.37127161026001,1.64, 0.03, -0.34, 103.33, 59.57, 20.45, 34.56, 16.26, 42.86,
71.48141860961914,0.09, 0.01, -0.07, 59.88, 8.79, -13.43, 32.62, 12.12, 45.98,
71.59122133255005,0.02, -0.08, -0.14, -47.67, -15.14, -3.85, 34.58, 10.99, 43.69,
71.70107173919678,2.82, -0.24, 0.03, -63.90, -4.52, -6.65, 35.94, 14.16, 43.29,
71.80930495262146,0.54, -0.11, -0.17, -50.90, 19.90, 10.99, 34.45, 18.52, 44.18,
71.92029619216919,-0.40, 0.17, -0.47, -0.67, -52.43, 4.64, 33.50, 21.73, 44.10,
72.02994155883789,1.38, 0.26, -0.37, 31.92, -50.35, 12.33, 35.11, 19.73, 42.48,
72.14022564888,1.03, -0.11, 0.03, 45.84, 9.40, -5.49, 35.18, 13.99, 43.26,
72.24989652633667,0.14, -0.18, -0.19, 10.56, 4.52, -19.53, 33.98, 11.79, 44.46,
72.36023664474487,1.77, -0.70, 0.01, -58.90, -0.61, -8.42, 35.88, 13.45, 41.61,
72.46943879127502,1.82, -0.09, 0.03, -92.83, 23.44, 15.63, 34.83, 18.59, 43.65,
72.57993650436401,0.35, 0.15, -0.26, -42.24, 20.69, 27.83, 34.59, 22.12, 41.74,
72.68901371955872,0.08, -0.04, 0.02, 43.88, -21.55, -17.58, 35.18, 22.44, 42.24,
72.7986946105957,2.33, 0.44, -0.57, 117.61, 33.51, 11.66, 34.06, 19.12, 44.48,
72.9082977771759,0.30, -0.03, 0.01, 57.37, 17.88, -19.96, 32.87, 13.56, 45.70,
73.01801419258118,-0.19, -0.12, 0.00, -13.79, -13.12, -15.38, 32.95, 11.71, 46.74,
73.12921810150146,2.31, -0.05, -0.12, -31.80, -32.59, -14.71, 33.94, 14.22, 45.43,
73.23890233039856,0.82, 0.00, -0.20, -63.05, 3.54, 14.59, 33.81, 18.91, 45.26,
73.34811568260193,-0.13, 0.14, -0.21, -36.44, -5.68, 11.05, 33.15, 21.37, 44.52,
73.45822095870972,4.00, 0.06, 0.13, 19.96, 52.61, 22.58, 34.29, 20.07, 44.64,
73.5666298866272,1.41, -0.01, -0.03, 63.72, 36.38, 5.80, 34.13, 13.73, 45.43,
73.67662048339844,0.01, -0.11, -0.06, 23.99, -5.37, 4.33, 33.54, 10.86, 45.20,
73.78589248657227,0.43, -0.23, -0.07, -4.88, -52.80, -12.45, 36.12, 10.79, 43.19,
73.89628267288208,1.88, -0.19, -0.05, -109.31, 24.96, 16.17, 36.72, 15.58, 44.32,
74.00590085983276,-0.06, 0.07, -0.30, -48.10, 15.63, 25.70, 35.40, 18.55, 43.54,
74.11617493629456,-0.06, 0.06, 0.00, 51.57, -44.49, -6.65, 35.86, 20.72, 42.64,
74.22517609596252,2.69, 0.78, -0.27, 47.36, 5.49, -11.78, 36.18, 19.98, 44.37,
74.3341076374054,0.88, -0.04, -0.07, 74.65, 6.71, -5.25, 35.36, 14.09, 44.18,
74.44371724128723,-0.23, -0.05, -0.08, 1.77, -0.37, -44.37, 34.33, 10.72, 43.93,
74.55369353294373,2.94, -0.71, -0.24, -38.70, 48.16, -13.24, 37.46, 12.16, 42.16,
74.66358256340027,1.22, 0.00, -0.09, -76.90, 12.33, 37.60, 35.86, 17.19, 44.31,
74.77427577972412,0.51, 0.06, -0.20, -96.80, 32.04, -0.49, 34.47, 20.69, 43.32,
74.88402318954468,0.58, 0.34, -0.15, 89.78, -60.61, 1.16, 36.79, 20.95, 41.74,
74.99419522285461,2.01, 0.20, 0.00, 76.97, 57.62, 29.24, 35.71, 18.31, 42.31,
75.1027979850769,-0.02, -0.02, -0.05, 45.53, 4.64, -2.26, 35.28, 13.27, 42.36,
75.21375179290771,-0.15, -0.06, -0.05, -1.89, -65.06, -10.19, 34.50, 13.12, 43.47,
75.32414293289185,2.85, -0.41, -0.08, -63.90, 30.21, -6.29, 36.50, 16.36, 41.74,
75.4341950416565,0.59, -0.00, -0.17, -41.02, -0.12, 12.02, 34.34, 21.25, 43.91,
75.54410219192505,-0.40, 0.08, -0.24, -50.35, 2.99, 2.44, 34.31, 23.40, 42.94,
75.65256261825562,1.70, 0.41, -0.16, 78.67, -30.46, 20.57, 34.30, 22.34, 42.63,
75.76256823539734,0.92, -0.29, 0.12, 9.28, 114.32, 8.61, 33.58, 15.43, 45.40,
75.87308239936829,0.16, -0.17, -0.16, 64.70, -63.29, 4.33, 30.58, 12.76, 47.29,
75.98254179954529,1.19, -0.46, -0.07, -35.10, 5.31, -23.62, 35.06, 11.57, 43.42,
76.09270167350769,1.72, -0.15, -0.05, -121.58, 34.36, -1.53, 34.08, 16.82, 44.90,
76.20273470878601,0.36, -0.02, -0.14, -64.82, 35.77, 8.97, 31.36, 22.97, 45.29,
76.31345009803772,0.10, 0.19, -0.22, 40.10, -66.65, 0.73, 33.06, 23.83, 43.87,
76.42228198051453,3.05, 1.09, -0.15, 83.44, -17.52, -21.91, 33.65, 20.97, 44.13,
76.53227424621582,0.59, -0.00, -0.15, 55.60, 20.57, -7.20, 32.87, 12.59, 44.85,
76.6431884765625,-0.18, -0.23, -0.17, 0.24, -32.23, -49.62, 33.34, 8.81, 43.15,
76.75285625457764,2.69, -0.34, -0.06, -53.59, -2.93, -61.89, 36.82, 12.27, 42.65,
76.8632230758667,1.36, 0.10, -0.02, -105.41, 29.48, 5.80, 34.81, 21.45, 44.04,
76.9723572731018,0.28, 0.11, -0.23, -51.57, 25.09, -1.65, 33.83, 22.85, 43.38,
77.08309555053711,0.30, 0.23, -0.31, 87.16, -54.93, 10.07, 35.13, 21.41, 43.42,
77.19202637672424,1.93, 0.25, -0.27, 107.42, 48.71, 63.90, 35.10, 18.63, 44.49,
77.30215668678284,0.27, 0.08, -0.13, 69.82, -1.04, -4.46, 32.60, 11.56, 46.14,
77.41110897064209,-0.31, -0.02, -0.11, -30.76, -27.28, -9.03, 32.91, 9.03, 44.34,
77.52257823944092,2.73, -0.17, -0.15, -65.37, -8.91, -0.24, 35.50, 14.98, 43.38,
77.63311886787415,0.72, 0.21, -0.24, -74.52, 13.55, 0.49, 33.67, 20.53, 44.03,
77.74244618415833,-0.10, 0.15, -0.38, -17.94, 1.95, 5.68, 32.23, 23.13, 44.24,
77.85281181335449,2.02, 0.45, -0.11, 53.65, -34.67, 9.09, 34.44, 21.04, 41.64,
77.96308422088623,1.19, -0.41, 0.11, 43.46, 65.73, 27.34, 35.18, 14.48, 43.47,
78.07288455963135,0.06, -0.11, -0.11, 35.52, 2.14, -13.92, 32.96, 12.11, 45.12,
78.1842052936554,0.58, -0.28, -0.37, -24.11, -44.56, -9.64, 34.85, 11.21, 43.65,
78.29340243339539,1.76, 0.15, 0.30, -74.10, 29.60, 9.64, 35.44, 17.52, 43.76,
78.4025719165802,0.45, 0.16, -0.14, -75.50, 15.20, -0.12, 34.69, 19.46, 42.43,
78.51234459877014,-0.06, 0.01, -0.22, 22.95, -14.16, -12.76, 35.27, 20.69, 41.83,
78.62357330322266,2.67, 0.53, -0.20, 90.27, 0.06, -8.67, 34.41, 19.35, 43.65,
78.73337650299072,0.78, -0.17, -0.09, 73.36, 17.88, -6.04, 34.53, 12.06, 43.87,
78.8435697555542,-0.47, -0.32, -0.20, -19.17, -6.59, -43.64, 33.31, 8.98, 43.93,
78.95526719093323,3.30, -0.50, 0.02, -68.91, 105.29, -2.38, 36.13, 11.12, 44.67,
79.06461668014526,1.25, 0.08, -0.19, -91.00, 0.49, 11.11, 35.18, 16.16, 44.32,
79.1752655506134,0.31, 0.22, 0.13, -101.62, 41.69, -1.10, 34.95, 19.80, 43.80,
79.28470635414124,0.70, 0.24, 0.00, 106.99, -83.50, -5.86, 36.06, 21.33, 42.11,
79.39457392692566,1.99, 0.29, -0.14, 79.10, 38.27, 42.30, 34.79, 19.41, 44.95,
79.50475263595581,0.14, 0.03, -0.07, 65.25, -3.66, -5.74, 33.40, 12.45, 46.19,
79.61494565010071,0.01, 0.03, -0.05, 26.92, -49.19, -24.72, 35.00, 10.36, 45.03,
79.72450995445251,2.38, -0.12, -0.03, -91.49, 34.67, -22.77, 36.89, 13.29, 44.12,
79.83487725257874,0.92, 0.05, -0.22, -73.73, -14.77, 12.39, 35.91, 19.08, 42.26,
79.94481062889099,-0.30, 0.25, -0.19, -4.94, -30.64, -4.46, 35.91, 21.29, 43.70,
80.05349612236023,3.34, 0.21, -0.17, -1.95, 47.00, 3.91, 37.70, 20.78, 40.48,
80.1636016368866,1.53, -0.01, 0.05, 72.63, 19.10, 20.57, 36.61, 19.67, 43.79,
80.27387166023254,0.55, -0.11, -0.34, 7.75, 48.40, 10.93, 35.75, 13.72, 42.19,
80.38391447067261,0.32, -0.15, 0.01, 8.54, -81.30, -9.34, 37.28, 14.88, 43.30,
80.49387860298157,2.03, -0.25, 0.03, -97.11, 9.16, 15.81, 35.47, 20.08, 43.55,
80.60246276855469,0.29, 0.05, -0.16, -42.48, -6.65, 25.70, 35.03, 22.90, 42.41,
80.71272921562195,-0.49, 0.12, -0.10, -5.98, -70.37, 2.50, 34.23, 23.83, 41.77,
80.822758436203,2.63, 0.52, -0.13, 19.90, 12.51, -6.41, 35.33, 22.53, 40.04,
80.93317866325378,0.84, -0.20, 0.02, 52.37, 32.17, -2.32, 35.02, 17.91, 42.09,
81.0422911643982,0.33, -0.18, -0.19, -9.46, 38.88, -5.68, 33.69, 13.81, 44.17,
81.1529974937439,2.48, -0.58, 0.15, -27.89, -2.32, -16.97, 34.52, 16.04, 43.65,
81.26225185394287,1.43, 0.05, -0.05, -104.86, 62.38, -5.98, 33.92, 21.29, 43.02,
81.37242245674133,0.24, 0.16, -0.19, -67.50, 21.24, 3.23, 33.17, 25.24, 43.57,
81.48234963417053,0.32, 0.06, -0.17, 31.13, -41.50, 3.78, 33.22, 27.37, 41.74,
81.59130668640137,1.95, 0.67, -0.29, 109.44, 15.56, 26.92, 34.83, 24.54, 42.46,
81.70057821273804,0.21, 0.11, -0.16, 76.42, 26.98, -14.83, 34.83, 13.61, 46.47,
81.81086206436157,-0.17, -0.19, -0.30, 9.28, -23.07, -29.60, 35.67, 11.77, 42.52,
81.9206178188324,2.89, -0.43, -0.27, -49.68, 10.86, -22.22, 36.34, 16.91, 44.86,
82.03093886375427,0.82, 0.23, -0.21, -51.03, 3.30, 15.50, 34.22, 21.53, 46.35,
82.13929605484009,-0.40, 0.06, -0.22, -18.37, -27.83, -1.53, 33.29, 22.51, 45.50,
82.24933075904846,2.28, -0.08, 0.06, 52.67, 2.93, 18.55, 36.93, 20.68, 42.90,
82.36091876029968,1.62, -0.31, 0.15, 92.77, 49.07, 41.63, 35.83, 17.76, 43.25,
82.4692747592926,1.23, 0.02, -0.45, 3.91, 63.48, 11.78, 35.03, 9.62, 45.41,
82.5794849395752,0.17, -0.14, 0.10, 48.77, -87.10, -11.96, 36.12, 11.38, 44.07,
82.6900520324707,2.09, -0.39, -0.17, -72.20, 10.19, 11.66, 35.79, 16.37, 46.73,
82.79919672012329,0.25, -0.03, -0.16, -54.99, 10.19, 27.89, 34.68, 20.13, 43.73,
82.91015100479126,-0.34, 0.16, -0.28, -14.16, -34.73, -1.04, 33.19, 23.05, 44.25,
83.02016925811768,1.74, -0.03, -0.36, 24.72, 11.96, -0.37, 36.04, 22.06, 42.24,
83.12929797172546,0.93, -0.17, -0.14, 73.00, 24.84, 3.78, 34.35, 14.81, 46.06,
83.23950695991516,0.67, -0.24, -0.27, -18.86, 37.90, -1.46, 33.22, 11.73, 45.21,
83.34906053543091,0.70, -0.40, -0.05, 33.26, -108.46, -12.27, 35.73, 12.82, 44.03,
83.45817971229553,1.66, -0.19, 0.03, -102.72, 59.94, 5.19, 35.56, 18.13, 43.42,
83.5686821937561,0.22, 0.08, -0.13, -39.18, 3.60, 4.70, 33.73, 21.87, 42.77,
83.67675852775574,-0.15, 0.12, -0.18, -3.42, -39.18, -5.49, 33.40, 24.17, 43.71,
83.78772354125977,3.69, 0.67, -0.14, 85.51, -26.67, -0.73, 35.10, 24.05, 41.66,
83.89625239372253,0.85, -0.06, 0.02, 59.69, 32.29, 1.89, 34.78, 14.37, 44.60,
84.00550127029419,0.02, -0.18, -0.16, 46.02, -70.86, -26.43, 34.83, 9.81, 42.96,
84.11665391921997,2.63, -0.68, 0.01, -53.89, 9.46, -35.64, 38.34, 11.73, 42.44,
84.22628283500671,1.50, -0.09, 0.22, -84.90, 26.00, 1.16, 36.55, 19.92, 42.72,
84.33768582344055,0.33, 0.00, -0.12, -89.36, 11.23, -12.63, 34.85, 23.08, 43.49,
84.44799661636353,0.18, 0.12, -0.13, 26.49, -50.17, 30.76, 36.57, 23.67, 40.72,
84.55865788459778,2.01, 0.82, -0.11, 68.60, 10.62, 25.39, 36.13, 19.91, 43.44,
84.66885209083557,0.11, -0.07, -0.13, 77.03, -6.10, 3.60, 34.95, 12.96, 43.18,
84.77854323387146,-0.62, -0.17, -0.15, -19.59, -19.10, -31.13, 33.89, 13.20, 44.53,
84.88960933685303,2.89, -0.08, -0.15, -35.95, 40.77, -51.15, 35.38, 16.87, 42.94,
85.00001549720764,0.88, -0.00, -0.16, -66.41, 14.71, 15.75, 33.57, 20.74, 44.17,
85.10997891426086,0.06, 0.11, -0.27, -60.30, 2.38, -0.31, 33.18, 24.06, 43.59,
85.21913504600525,2.44, 0.48, -0.08, 18.80, 15.75, 29.91, 33.91, 24.00, 42.43,
85.3284227848053,1.33, -0.25, 0.03, 95.83, 113.77, 29.72, 35.02, 16.60, 44.31,
85.43766760826111,0.09, -0.04, -0.10, 83.07, 33.51, 4.03, 31.98, 11.96, 45.83,
85.5476393699646,0.28, -0.21, -0.24, -9.89, -44.86, -12.82, 34.12, 9.05, 44.02,
85.65737128257751,1.98, -0.45, -0.26, -122.68, -19.10, 9.09, 34.46, 15.70, 45.32,
85.76829981803894,0.46, -0.04, -0.20, -79.22, 23.32, 8.48, 32.89, 21.85, 45.23,
85.87840127944946,-0.17, 0.12, -0.30, 17.76, -62.38, 3.97, 34.64, 24.82, 42.98,
85.98875117301941,2.76, 0.41, -0.55, 73.43, 5.43, -18.37, 36.52, 21.40, 43.42,
86.10012912750244,0.83, -0.18, -0.09, 91.13, 45.90, 14.22, 34.58, 11.54, 46.55,
86.20934462547302,0.16, -0.12, -0.28, 30.27, -0.12, -0.92, 30.91, 5.97, 46.45,
86.31979894638062,1.00, -0.36, -0.73, 7.32, -129.39, -21.18, 33.15, 7.57, 47.81,
86.42943406105042,1.55, -0.01, -0.17, -128.54, 77.51, 3.72, 35.90, 13.33, 46.06,
86.53932809829712,0.27, 0.09, -0.24, -65.06, -2.75, 5.49, 31.48, 19.03, 48.47,
86.64980435371399,0.23, 0.14, -0.10, 54.14, -55.48, -2.56, 33.92, 19.48, 45.40,
86.7598807811737,2.90, 1.13, -0.01, 77.21, -10.74, -5.25, 35.13, 16.77, 44.20,
86.86981987953186,0.46, -0.06, -0.09, 49.44, -2.26, -6.10, 35.84, 9.56, 44.58,
86.97933983802795,-0.15, -0.12, -0.16, 5.19, -49.19, -23.50, 36.39, 7.98, 41.31,
87.08981013298035,2.89, -0.42, 0.14, -91.06, 55.60, -35.52, 40.55, 10.23, 38.18,
87.20001435279846,1.34, -0.14, 0.22, -111.39, -36.50, 23.93, 39.26, 16.17, 39.93,
87.31035375595093,-0.13, 0.22, -0.32, -46.69, -17.33, -8.73, 39.55, 20.48, 35.88,
87.42031383514404,0.12, 0.16, -0.10, 29.66, 4.21, -1.40, 40.10, 21.01, 33.52,
87.53097701072693,2.47, 0.38, 0.45, 48.46, 22.95, 17.09, 38.68, 20.26, 37.55,
87.6404197216034,-0.32, -0.04, -0.13, 62.26, 27.04, 37.41, 38.54, 14.32, 38.39,
87.7508647441864,-0.08, 0.01, -0.05, 11.66, -15.75, -31.56, 37.68, 10.97, 39.90,
87.86174249649048,2.48, 0.11, 0.23, -25.63, -1.16, -49.32, 39.43, 12.17, 40.26,
87.97176599502563,1.08, -0.10, -0.09, -87.65, -1.89, 24.05, 37.50, 18.54, 41.20,
88.0828948020935,-0.34, 0.16, -0.21, -43.21, -34.06, 0.24, 37.50, 20.64, 38.62,
88.19246363639832,0.88, 0.16, 0.18, 51.70, 35.40, -21.79, 39.79, 21.95, 36.06,
88.30188751220703,2.15, 0.03, 0.05, 121.83, -4.88, 30.70, 37.48, 19.65, 40.94,
88.41143131256104,-0.78, -0.35, -0.19, -14.34, 39.12, 23.86, 38.26, 12.84, 38.93,
88.52157092094421,0.28, 0.04, -0.09, 72.57, -71.59, -33.75, 39.04, 11.21, 38.57,
88.63076949119568,2.82, -0.33, 0.30, -18.01, 11.23, -38.33, 39.10, 14.98, 40.84,
88.74027609825134,0.81, 0.00, -0.15, -76.05, 9.77, 13.85, 38.72, 17.07, 39.36,
88.84929037094116,-0.68, 0.13, -0.22, -2.62, -38.09, -13.79, 38.64, 19.04, 38.04,
88.95942163467407,2.58, 0.13, 0.11, 69.34, 13.37, -5.25, 39.37, 18.21, 37.73,
89.06848907470703,2.09, 0.16, 0.30, 96.74, -3.23, 14.65, 38.15, 16.86, 38.98,
89.17837119102478,0.63, -0.26, -0.02, -38.70, 72.33, -24.78, 38.12, 10.07, 39.04,
89.28988647460938,0.15, -0.03, -0.18, -45.10, -26.86, -21.85, 37.60, 11.11, 40.50,
89.40076065063477,2.25, -0.34, 0.21, -59.02, -1.95, 9.22, 37.87, 17.71, 41.37,
89.51065754890442,0.44, 0.08, -0.16, -68.05, 9.40, 18.31, 37.54, 20.54, 39.97,
89.62085556983948,-0.59, 0.19, -0.18, 1.71, -75.38, -2.38, 37.65, 21.74, 37.65,
89.73030543327332,1.21, 0.06, -0.14, 14.95, 12.15, -22.28, 38.37, 21.79, 38.99,
89.83980417251587,1.41, -0.03, 0.08, 81.24, 1.59, 25.57, 36.69, 20.02, 41.43,
89.94941973686218,1.49, -0.14, 0.04, -42.79, 30.64, -18.25, 36.85, 15.01, 40.31,
90.05834913253784,0.28, -0.31, -0.35, -23.62, -52.61, 10.44, 39.36, 15.03, 39.04,
90.1682870388031,2.29, -0.25, 0.34, -80.69, -27.40, 16.48, 37.28, 19.56, 40.93,
90.2796995639801,0.15, 0.08, -0.26, -82.95, 22.64, 16.54, 38.54, 21.19, 37.18,
90.39084696769714,0.06, 0.19, -0.05, 69.03, -88.93, -8.00, 38.87, 22.72, 35.12,
90.5008373260498,2.20, 0.48, 0.06, 27.22, 28.87, 0.18, 39.40, 22.11, 37.05,
90.60992980003357,0.92, -0.12, 0.14, 103.58, -2.26, 7.20, 38.70, 17.61, 38.59,
90.7200653553009,-1.02, -0.90, -0.08, 14.04, -35.95, -78.80, 39.06, 13.95, 38.35,
90.82989859580994,1.38, -0.33, 0.69, 36.74, -31.43, 6.77, 39.69, 13.90, 38.45,
90.93864965438843,1.53, -0.22, 0.21, -105.96, 37.60, 19.84, 39.31, 18.15, 39.10,
91.0489776134491,-0.04, 0.21, -0.01, -29.66, -38.33, -23.13, 39.43, 19.59, 38.33,
91.1589732170105,0.51, 0.26, 0.00, 21.67, 9.52, 10.74, 40.32, 20.32, 37.50,
91.26781749725342,2.27, 0.46, 0.13, 99.91, 8.12, 24.84, 39.50, 20.30, 38.12,
91.37789487838745,0.47, 0.05, 0.19, -10.07, 107.67, -20.14, 38.51, 13.48, 38.95,
91.48729419708252,-0.40, -0.09, 0.14, 100.89, -213.87, 0.37, 39.33, 12.84, 38.61,
91.59770035743713,2.33, 0.05, 0.71, -117.61, 76.60, -9.95, 40.16, 13.42, 39.43,
91.70744729042053,1.17, 0.11, 0.04, -95.34, 7.75, 11.72, 39.84, 18.98, 39.05,
91.81682324409485,-0.23, 0.15, -0.26, -45.65, -13.31, -16.05, 38.59, 21.04, 37.60,
91.92668080329895,0.40, -0.03, 0.04, -4.88, 24.90, 6.71, 39.66, 21.75, 34.59,
92.03609943389893,2.22, 0.36, 0.18, 49.62, 28.75, 23.44, 39.00, 22.64, 37.26,
92.14546012878418,0.11, -0.02, -0.14, 1.65, 36.68, 3.05, 37.67, 17.37, 40.34,
92.25476169586182,-0.03, -0.10, 0.10, 46.69, -81.97, 0.24, 39.25, 19.10, 38.32,
92.36507081985474,2.54, -0.12, 0.37, -27.95, -0.49, -7.02, 39.34, 21.95, 37.92,
92.47463583946228,0.74, -0.10, -0.11, -75.56, 23.50, -0.12, 38.37, 23.16, 37.40,
92.58463215827942,-0.33, 0.02, -0.33, -10.62, -11.05, -2.01, 38.18, 24.55, 36.33,
92.69432425498962,3.31, 0.49, 0.31, 39.61, 26.25, 16.17, 38.89, 24.60, 35.38,
92.80309987068176,1.61, -0.01, 0.19, 121.15, -1.16, 40.04, 37.79, 21.22, 37.10,
92.91439723968506,0.37, 0.24, 0.28, -39.49, 50.90, -18.74, 37.90, 12.18, 39.31,
93.02366375923157,-0.16, -0.09, 0.20, 76.11, -77.58, -1.22, 39.65, 13.26, 36.55,
93.13305330276489,2.42, -0.39, 0.31, -35.64, 13.06, 43.88, 38.88, 13.42, 35.95,
93.24276423454285,0.46, 0.21, -0.01, -114.93, 41.56, -2.56, 38.13, 14.90, 36.79,
93.3530342578888,-0.08, 0.27, -0.24, 42.60, -1.59, -10.56, 36.52, 18.03, 39.76,
93.46240520477295,2.15, 0.71, 0.42, 91.67, -27.34, 24.35, 37.29, 16.27, 37.79,
93.57134819030762,1.10, 0.00, 0.14, 81.54, 15.20, 10.99, 36.15, 11.28, 39.23,
93.68000817298889,-0.42, -0.24, -0.14, 13.31, 41.69, -9.03, 34.35, 7.30, 40.72,
93.79048037528992,0.57, -0.28, -0.51, 51.27, -85.39, -12.33, 34.62, 9.89, 41.11,
93.9020791053772,1.83, -0.27, 0.25, -100.89, 30.88, 15.20, 34.63, 12.83, 39.78,
94.01286053657532,1.11, -0.15, -0.40, -53.47, 32.71, 14.95, 33.87, 16.04, 39.97,
94.12230968475342,0.02, 0.06, 0.31, 65.92, -88.01, -2.20, 33.69, 19.06, 41.08,
94.23118090629578,2.40, 0.74, -0.01, 68.91, 21.24, 34.85, 35.00, 17.99, 41.69,
94.34065294265747,0.38, 0.07, -0.14, 46.26, 15.56, -6.47, 33.13, 12.04, 43.68,
94.45026969909668,-0.34, -0.25, -0.08, 24.72, -47.49, -31.80, 34.33, 8.68, 41.39,
94.56072473526001,2.32, 0.27, 0.21, -68.79, 31.98, -25.57, 35.52, 14.17, 40.66,
94.6697850227356,0.92, 0.17, -0.20, -84.53, 9.40, 18.55, 32.59, 18.08, 43.84,
94.77971291542053,-0.18, 0.13, -0.13, -98.27, 35.89, 4.39, 32.70, 18.96, 42.96,
94.8885989189148,1.73, 0.26, 0.22, 22.09, 33.33, 12.63, 33.61, 19.54, 41.16,
94.99727368354797,1.86, 0.08, 0.02, 73.91, 73.18, 43.27, 34.85, 18.38, 42.13,
95.10780572891235,0.02, -0.05, -0.08, 60.85, 7.39, -6.53, 31.80, 9.39, 44.56,
95.21792149543762,0.22, -0.13, 0.00, -38.21, -33.45, -22.34, 34.47, 9.40, 41.80,
95.32805609703064,2.21, -0.38, -0.11, -91.49, 22.71, 24.60, 32.92, 16.04, 44.29,
95.43741869926453,0.16, 0.02, -0.22, -25.76, -41.32, 8.61, 31.56, 20.42, 45.30,
95.54618096351624,-0.18, 0.28, 0.02, -9.83, -31.49, 16.85, 30.81, 22.77, 44.82,
95.65630340576172,3.35, 0.65, -0.51, 60.06, -77.03, 8.54, 32.96, 21.94, 44.58,
95.76607728004456,0.69, -0.08, -0.24, 35.83, 36.68, -20.75, 30.49, 14.81, 48.16,
95.87683868408203,-0.21, -0.26, -0.14, 49.99, -58.04, -20.75, 32.81, 10.23, 44.47,
95.98608064651489,3.53, -0.57, -0.16, -67.63, 53.83, -59.63, 35.34, 15.60, 44.93,
96.09617853164673,1.07, 0.15, -0.07, -100.52, 60.67, 23.13, 32.17, 20.37, 46.13,
96.20679306983948,0.19, 0.07, -0.59, -41.08, 85.69, -6.10, 31.12, 22.68, 45.23,
96.31631255149841,0.55, 0.41, -0.40, 103.27, -91.43, 21.36, 29.35, 25.13, 45.46,
96.42644023895264,1.65, 0.48, -0.32, 98.69, 55.60, 41.32, 31.77, 17.13, 46.24,
96.53587055206299,0.08, -0.04, -0.19, 76.42, 26.18, -17.15, 26.88, 12.52, 50.02,
96.64419674873352,-0.05, -0.05, -0.05, -47.12, -7.69, -12.88, 29.47, 10.03, 47.31,
96.75481152534485,2.96, -0.08, -0.32, -66.77, -21.61, -38.45, 31.23, 16.35, 47.33,
96.86433506011963,0.63, 0.21, -0.12, -71.90, 60.73, 21.24, 29.38, 21.08, 47.47,
96.97448539733887,0.21, 0.01, -0.31, -7.87, 46.02, -10.38, 26.90, 23.49, 48.41,
97.08354830741882,1.96, 0.40, -0.17, 51.33, -18.13, 13.43, 25.11, 24.74, 48.80,
97.19359040260315,1.22, -0.18, -0.61, 92.83, 53.22, 5.25, 27.39, 15.64, 49.28,
97.30262160301208,0.40, 0.07, -0.00, 42.18, -0.18, 4.39, 22.01, 13.09, 51.51,
97.41130781173706,0.67, -0.24, -0.42, -39.25, -97.17, -22.71, 27.91, 10.62, 48.63,
97.52159547805786,1.39, -0.65, -0.30, -91.98, -18.55, 1.28, 29.97, 20.84, 47.38,
97.63100600242615,0.54, -0.03, -0.39, -47.73, 81.91, 4.15, 28.58, 26.33, 47.29,
97.73989820480347,0.05, 0.11, -0.26, 23.99, -64.33, 17.58, 25.92, 26.40, 48.36,
97.84920167922974,2.91, 0.45, -0.66, 77.09, -30.52, 15.50, 30.65, 22.19, 47.47,
97.95862317085266,0.96, -0.35, -0.14, 22.16, 105.10, 5.31, 26.71, 12.12, 51.57,
98.06894135475159,0.03, -0.29, -0.39, 95.03, -77.64, -4.46, 26.70, 6.38, 49.45,
98.17844033241272,2.08, -0.43, -0.15, -83.01, -9.16, -66.10, 31.65, 11.10, 47.27,
98.28901433944702,1.21, -0.16, -0.19, -130.25, 46.63, -16.17, 30.99, 21.70, 46.03,
98.39823746681213,0.40, 0.06, -0.36, -27.34, 72.08, -14.28, 27.01, 28.23, 47.56,
98.50851035118103,0.87, 0.50, -0.42, 90.52, -60.24, 2.08, 24.60, 28.91, 48.14,
98.61890411376953,1.56, 0.27, -0.59, 136.96, -8.36, 39.43, 29.04, 18.51, 48.93,
98.72879219055176,0.50, 0.22, -0.13, 93.81, 57.25, 3.54, 24.71, 11.29, 52.15,
98.83823943138123,0.07, -0.19, -0.18, 39.49, -109.99, -13.67, 27.91, 3.56, 47.99,
98.94900345802307,2.73, -0.31, -0.14, -147.77, -14.77, -11.41, 30.81, 11.40, 47.44,
99.05834555625916,0.70, 0.46, -0.50, -55.97, 66.04, -8.85, 30.30, 22.71, 47.80,
99.168630361557,-0.13, 0.28, -0.17, -24.66, -57.25, -2.81, 25.59, 28.31, 48.29,
99.2777087688446,2.09, 0.03, -0.20, 108.70, -21.12, 33.94, 30.11, 22.64, 48.65,
99.38734936714172,0.95, -0.23, -0.40, 96.56, 134.28, 32.65, 28.83, 10.28, 49.58,
99.49764513969421,0.14, -0.28, -0.23, 110.72, -71.59, 7.14, 27.54, 0.02, 47.09,
99.6070704460144,0.80, -0.48, -0.10, -57.50, -43.09, -51.57, 31.38, -0.13, 46.28,
99.71804022789001,1.57, -0.13, -0.30, -192.93, 27.53, -12.88, 31.95, 12.41, 48.08,
99.82702255249023,0.47, 0.01, -0.43, -75.13, 62.68, -9.34, 29.42, 22.94, 48.78,
99.93723392486572,0.18, 0.41, -0.04, -3.97, -60.18, -8.73, 25.62, 27.60, 50.28,
100.04713273048401,3.55, 1.03, -0.55, 127.62, -93.75, 11.29, 32.12, 19.71, 47.08,
100.15627837181091,0.65, -0.08, -0.02, 82.03, 61.10, -14.28, 27.28, 9.02, 51.37,
100.265212059021,0.03, -0.20, -0.30, 62.81, -74.89, -19.23, 29.46, 0.88, 46.39,
100.3758897781372,2.13, 0.34, 0.04, -91.74, 21.97, -65.31, 31.69, 3.76, 47.12,
100.48524165153503,1.42, 0.33, 0.06, -122.99, 58.17, 19.53, 31.42, 13.66, 49.04,
100.59679222106934,0.30, 0.16, -0.22, -54.02, 46.45, -0.37, 28.36, 18.52, 49.94,
100.7075183391571,0.49, 0.49, -0.45, 74.04, -82.46, 3.72, 31.29, 18.13, 47.49,
100.81768345832825,1.80, 0.24, -0.42, 108.70, 47.73, 53.59, 32.31, 12.16, 46.98,
100.92961573600769,0.09, 0.07, -0.24, 106.38, -15.50, -0.61, 28.22, 7.28, 48.52,
101.03857135772705,-0.11, -0.09, -0.13, -59.14, -17.82, -31.68, 31.40, 4.55, 45.68,
101.14899444580078,3.28, -0.67, -0.59, -91.31, -55.48, -4.52, 32.51, 12.79, 46.58,
101.25899600982666,0.53, 0.22, -0.24, -61.28, 36.25, 37.60, 31.31, 20.69, 46.15,
101.36827206611633,-0.26, 0.07, -0.27, 18.98, -74.83, -5.00, 30.48, 23.77, 45.65,
101.47867798805237,2.74, -0.08, -0.08, 32.29, 21.06, 32.78, 32.18, 21.86, 44.23,
101.58853888511658,1.10, -0.23, -0.01, 65.25, 97.84, 21.48, 32.41, 14.34, 46.36,
101.698326587677,0.19, -0.31, -0.14, 91.06, -44.56, 4.88, 30.77, 9.64, 47.13,
101.80824089050293,0.86, -0.38, 0.13, -68.97, -5.92, -26.55, 34.73, 10.14, 43.93,
101.91922688484192,1.74, -0.16, -0.14, -119.69, 47.49, 12.27, 33.65, 17.30, 45.10,
102.02950978279114,0.13, 0.04, -0.28, -59.75, 28.38, 21.48, 31.47, 21.04, 45.23,
102.13940596580505,0.02, 0.04, -0.09, 50.66, -31.86, 2.69, 32.87, 20.06, 44.29,
102.2494068145752,3.62, 0.79, -0.12, 105.83, 14.65, -2.99, 33.47, 18.18, 43.79,
102.35954427719116,0.50, -0.02, -0.18, 69.82, 24.48, -10.44, 31.92, 10.86, 46.77,
102.46968150138855,-0.51, -0.08, 0.02, -13.37, -32.96, -39.18, 31.32, 6.07, 46.18,
102.57989549636841,2.40, 0.23, 0.12, -111.08, 51.82, -69.09, 36.54, 6.63, 43.20,
102.6879575252533,1.22, 0.03, -0.15, -116.70, 13.06, 4.64, 35.66, 15.37, 44.41,
102.79863595962524,0.25, 0.23, -0.13, -170.23, 33.45, -27.28, 33.56, 24.37, 43.86,
102.90851998329163,0.20, 0.24, -0.27, 23.68, -76.48, 8.67, 36.54, 26.42, 40.44,
103.01884841918945,1.90, 0.65, -0.34, 122.56, 40.04, 71.66, 37.57, 23.16, 41.39,
103.1294903755188,-0.27, -0.09, -0.02, 80.69, 32.84, -5.37, 36.32, 12.67, 43.98,
103.23949313163757,0.42, -0.12, 0.19, 71.17, -73.61, -34.61, 35.23, 10.42, 43.48,
103.34931707382202,2.70, 0.39, 0.28, -68.48, 16.72, -81.60, 37.33, 13.78, 44.34,
103.45919132232666,1.03, 0.13, -0.17, -101.93, 15.93, 21.79, 37.22, 20.83, 43.08,
103.57078051567078,-0.60, 0.19, -0.15, -1.65, -77.33, -16.42, 35.91, 23.10, 42.46,
103.6815984249115,0.33, 0.32, -0.30, 4.03, 87.77, 35.89, 39.11, 21.62, 39.05,
103.79121327400208,2.25, 0.04, -0.08, 133.36, -1.46, 57.25, 37.38, 18.58, 41.24,
103.90118312835693,1.25, 0.32, 0.37, 12.82, 36.01, -41.44, 37.85, 11.28, 40.67,
104.01164674758911,0.01, -0.09, -0.11, -3.48, -42.54, 33.20, 38.07, 12.32, 41.10,
104.12139225006104,3.47, -0.47, 0.13, -15.75, -39.79, 11.47, 37.30, 15.71, 40.31,
104.23081874847412,0.65, 0.10, -0.26, -93.75, 13.06, 11.90, 36.78, 18.31, 41.93,
104.34192180633545,-0.46, 0.01, -0.30, -40.34, 1.10, -4.09, 37.54, 20.68, 38.84,
104.45138931274414,3.89, 0.34, 0.64, 26.98, 38.70, -13.00, 37.81, 21.37, 39.69,
104.56187295913696,1.00, -0.15, 0.10, 83.50, 15.32, 28.75, 37.06, 17.15, 40.20,
104.67053961753845,0.01, 0.07, 0.30, -14.22, 57.43, -33.02, 36.99, 10.40, 40.15,
104.78061819076538,0.24, -0.24, -0.27, -42.60, 4.21, -13.37, 36.99, 13.81, 44.13,
104.89038515090942,1.97, -0.11, 0.12, -91.37, 1.04, 14.59, 36.41, 19.53, 43.19,
105.00073409080505,1.52, -0.14, 0.05, -99.43, 59.94, 32.96, 35.99, 20.54, 42.35,
105.11057376861572,0.09, -0.02, 0.08, 69.89, -106.26, -15.26, 37.13, 22.39, 39.71,
105.21959567070007,3.19, 0.66, -0.37, 41.69, 8.48, -11.90, 36.74, 23.00, 41.91,
105.32810807228088,0.81, -0.31, -0.07, 81.91, -8.36, 6.59, 36.61, 15.42, 42.55,
105.43716621398926,-0.69, -0.25, -0.28, 37.54, -62.68, -40.47, 35.64, 11.45, 43.32,
105.54773926734924,3.31, -0.89, -0.19, -54.50, 162.17, -12.76, 37.93, 14.73, 43.36,
105.65796947479248,1.50, 0.03, -0.03, -76.66, 1.34, 40.95, 36.11, 18.54, 44.18,
105.76647782325745,0.78, -0.15, -0.37, -110.60, 109.50, -11.23, 34.99, 19.81, 43.18,
105.87697792053223,0.19, 0.03, -0.04, 46.88, -44.13, 4.09, 36.62, 20.85, 42.57,
105.98676919937134,2.00, 0.15, -0.18, 76.17, 57.19, 29.85, 36.44, 20.17, 41.89,
106.09603643417358,0.18, 0.02, -0.04, 49.93, 1.83, 0.79, 34.17, 14.42, 44.09,
106.206702709198,-0.07, -0.04, -0.07, -22.40, -5.13, -31.19, 33.06, 12.56, 45.13,
106.31656742095947,2.31, -0.08, -0.17, -48.77, -33.33, 2.14, 34.34, 17.11, 45.36,
106.42610239982605,1.28, 0.09, -0.02, -82.76, 10.13, 24.35, 33.01, 21.83, 44.21,
106.53531408309937,-0.14, 0.11, -0.16, -50.66, 28.20, 11.90, 32.51, 23.93, 44.35,
106.64580345153809,1.38, 0.25, 0.03, 75.50, -17.70, -2.56, 33.37, 23.51, 43.92,
106.75513362884521,1.84, 0.05, -0.26, 89.78, 81.73, 22.34, 34.55, 20.53, 44.34,
106.86450433731079,0.16, 0.04, -0.12, 72.57, 21.55, -17.88, 33.09, 13.56, 46.94,
106.97390031814575,0.02, 0.00, -0.17, 0.12, -16.36, -10.93, 34.90, 9.62, 44.65,
107.08309984207153,2.71, -0.16, -0.42, -33.39, -31.80, -16.72, 33.36, 13.88, 45.87,
107.19302701950073,0.83, 0.08, -0.09, -65.49, 21.61, 11.96, 32.02, 17.87, 46.81,
107.30328845977783,-0.33, 0.05, -0.47, -10.25, -24.48, -0.98, 30.66, 19.07, 47.72,
107.4136130809784,3.00, -0.06, 0.46, 19.59, 23.25, 7.20, 33.59, 18.38, 44.67,
107.522629737854,1.56, -0.32, 0.04, 50.42, 73.79, 17.27, 33.41, 13.89, 45.47,
107.63232421875,0.47, -0.23, -0.19, 22.71, 10.44, 0.79, 31.29, 10.22, 46.95,
107.7424898147583,0.52, -0.16, -0.15, -8.67, -86.00, -7.08, 34.53, 10.42, 44.08,
107.8528459072113,1.84, -0.21, 0.03, -91.74, 30.94, 21.73, 33.83, 15.09, 43.85,
107.9622540473938,0.22, -0.01, -0.14, -37.17, -13.61, 17.70, 33.46, 17.70, 44.09,
108.07195115089417,-0.10, 0.16, -0.18, 7.87, -50.17, 3.23, 33.15, 19.74, 45.06,
108.1814649105072,3.22, 0.94, -0.33, 60.97, -42.85, -15.50, 34.00, 19.10, 43.38,
108.29174780845642,0.67, -0.14, -0.16, 54.02, 34.36, -17.52, 33.26, 12.84, 44.54,
108.40132212638855,-0.02, -0.14, -0.20, 64.70, -59.20, -15.81, 32.36, 9.52, 44.92,
108.51206111907959,2.49, 0.04, 0.20, -60.61, 32.23, -43.15, 33.31, 12.87, 45.57,
108.62277340888977,1.60, -0.06, -0.10, -111.76, 52.98, 12.08, 32.95, 17.70, 45.37,
108.7328450679779,0.26, 0.09, -0.25, -40.59, 45.90, 23.38, 29.80, 20.37, 47.22,
108.84122657775879,0.44, 0.21, -0.44, 31.43, -53.65, -8.67, 30.09, 21.84, 47.99,
108.95051908493042,2.07, 0.55, -0.26, 93.87, -14.34, 13.98, 31.71, 19.69, 46.18,
109.05961418151855,0.64, 0.11, -0.05, 31.07, 16.17, -2.62, 30.32, 12.88, 48.43,
109.16933846473694,0.00, -0.16, -0.26, 51.88, -70.13, -24.84, 32.26, 8.14, 45.65,
109.27985310554504,2.57, 0.24, -0.16, -56.58, -6.23, -44.07, 32.69, 13.73, 48.83,
109.38872027397156,1.09, 0.24, -0.09, -68.18, 41.32, 17.64, 32.24, 18.31, 46.17,
109.49888396263123,-0.24, 0.15, -0.23, -33.87, -41.08, 0.79, 31.97, 19.64, 45.95,
109.60860300064087,1.91, 0.48, -0.06, 25.45, 20.32, 3.54, 34.97, 21.25, 42.50,
109.71851515769958,1.85, 0.10, -0.04, 93.02, 76.54, 9.77, 34.59, 18.81, 45.18,
109.82808351516724,0.60, -0.09, -0.30, 38.82, 20.81, -0.73, 32.12, 11.35, 46.84,
109.93807125091553,-0.02, -0.27, -0.12, 5.68, -75.81, -17.82, 33.70, 12.93, 46.14,
110.04775214195251,2.46, -0.20, -0.34, -56.27, -12.15, 30.70, 31.48, 18.51, 49.33,
110.15932178497314,0.42, 0.04, -0.15, -41.14, -24.35, 22.40, 31.45, 21.45, 47.30,
110.26915693283081,-0.35, -0.07, -0.23, -21.79, -20.20, -3.85, 29.15, 23.51, 48.08,
110.38047456741333,2.53, 0.57, -0.45, 21.48, -95.52, -0.85, 31.35, 23.24, 46.55,
110.48911809921265,1.13, -0.04, 0.06, 23.13, 76.90, -10.25, 29.86, 15.69, 48.89,
110.59925889968872,-0.07, -0.17, -0.19, 42.60, -4.70, -11.23, 28.82, 12.61, 49.44,
110.71067452430725,2.98, 0.35, -0.19, -95.83, 11.84, -31.43, 30.25, 15.10, 49.39,
110.81944870948792,1.11, 0.06, -0.39, -80.14, 57.31, 6.84, 32.35, 19.63, 47.85,
110.92846179008484,-0.09, 0.00, -0.18, -21.91, -19.35, 5.80, 30.18, 22.16, 47.14,
111.03799104690552,1.18, 0.34, 0.03, 62.13, -43.70, 3.54, 33.09, 22.11, 44.60,
111.14769053459167,1.67, 0.26, -0.40, 122.01, 75.07, 21.61, 34.24, 19.74, 45.81,
111.25599241256714,0.25, -0.05, -0.14, 59.39, 19.90, -18.68, 30.80, 10.58, 47.68,
111.36649656295776,0.20, -0.05, 0.04, -35.83, -29.60, -9.58, 32.02, 9.94, 47.05,
111.47671294212341,1.84, 0.34, -0.21, -43.82, -24.66, -29.54, 33.37, 15.22, 47.83,
111.58496975898743,1.01, 0.16, -0.00, -86.49, 17.64, 32.71, 33.22, 18.53, 45.35,
111.6954972743988,-0.17, 0.00, -0.29, -45.72, 48.28, -18.92, 31.88, 19.51, 45.32,
111.80498242378235,0.79, 0.08, -0.08, 110.47, -80.26, -26.67, 33.78, 20.56, 44.30,
111.91501450538635,1.78, -0.14, -0.10, 88.26, 64.27, 41.75, 33.37, 14.40, 46.67,
112.02548456192017,0.12, 0.02, 0.01, 76.97, 4.21, 2.08, 32.02, 9.42, 45.89,
112.13485789299011,-0.15, -0.09, -0.10, -16.36, -28.14, -9.83, 31.87, 10.39, 47.49,
112.24577379226685,2.87, -0.37, -0.34, -88.68, 4.15, 5.25, 35.05, 13.75, 45.54,
112.35426235198975,0.40, -0.02, -0.15, -49.07, -2.20, 23.07, 33.29, 17.74, 46.61,
112.46484756469727,-0.19, 0.09, -0.23, -46.69, -20.14, 4.03, 32.39, 19.86, 45.65,
112.57433342933655,1.79, 0.17, 0.33, 9.46, -25.51, 33.39, 35.30, 19.51, 43.84,
112.68334484100342,1.19, -0.04, 0.02, 40.34, 64.15, 7.20, 31.80, 14.44, 47.83,
112.79301929473877,0.35, -0.09, -0.16, 17.76, -4.82, 7.51, 30.86, 11.61, 47.99,
112.90238308906555,0.55, -0.15, -0.38, -15.01, -66.89, -14.16, 31.91, 14.25, 48.03,
113.01194548606873,1.47, -0.09, -0.12, -97.35, 22.58, 3.05, 33.06, 19.23, 46.33,
113.12134051322937,0.40, -0.02, -0.19, -42.66, 36.38, 5.37, 30.27, 21.72, 47.14,
113.23113107681274,-0.17, 0.14, -0.32, 26.43, -35.95, -1.53, 28.44, 24.65, 47.46,
113.34159421920776,3.37, 0.92, -0.44, 63.48, -57.07, -27.83, 30.53, 21.62, 47.23,
113.45180344581604,0.80, -0.07, 0.07, 26.92, 65.00, -10.44, 30.32, 14.99, 48.50,
113.56133103370667,-0.35, -0.29, -0.06, 70.43, -59.88, -18.55, 30.41, 11.54, 48.23,
113.67115521430969,2.15, 0.12, 0.04, -83.92, 8.00, -29.72, 33.45, 14.48, 47.72,
113.78156352043152,1.01, 0.12, -0.25, -79.47, 46.88, 3.97, 32.93, 20.61, 47.29,
113.89160537719727,-0.03, 0.07, -0.27, -16.42, -12.21, 4.52, 30.29, 23.60, 47.13,
114.00179386138916,1.60, 0.41, -0.07, 44.37, 28.26, 19.35, 32.84, 23.38, 45.24,
114.11170697212219,1.45, 0.04, -0.39, 113.53, 50.96, 30.82, 33.81, 15.71, 47.55,
114.22173976898193,0.08, -0.25, -0.12, 53.59, 12.94, -18.62, 30.35, 11.96, 49.43,
114.33141303062439,0.03, -0.10, -0.12, -49.62, -20.14, -6.96, 32.10, 10.89, 46.50,
114.44145774841309,2.90, -0.28, -0.36, -82.15, -24.35, 22.28, 33.56, 15.78, 47.05,
114.55179023742676,0.54, 0.07, -0.17, -53.28, 35.71, 11.17, 31.54, 19.98, 48.00,
114.661860704422,-0.11, -0.02, -0.24, 3.91, -29.54, 8.54, 30.15, 21.57, 47.66,
114.77157187461853,1.91, 0.21, -0.57, 28.75, -43.33, -14.89, 32.56, 18.41, 47.69,
114.88063788414001,1.17, -0.04, 0.07, 27.65, 51.33, 6.90, 31.75, 11.35, 47.95,
114.9904522895813,0.05, -0.13, -0.04, 47.06, -37.48, -10.07, 31.99, 7.92, 46.39,
115.10146999359131,2.43, -0.62, 0.19, -79.10, 31.74, -26.86, 34.46, 10.91, 44.74,
115.21110105514526,1.67, -0.04, 0.16, -114.81, 20.26, 18.92, 32.89, 16.98, 46.50,
115.31982398033142,0.16, 0.03, -0.35, -48.28, 32.23, 17.64, 32.78, 21.09, 45.28,
115.43067073822021,0.21, 0.11, -0.04, 20.08, -45.53, 0.73, 33.42, 22.42, 44.64,
115.53983497619629,2.44, 0.83, -0.46, 67.81, -15.26, 5.80, 35.69, 20.15, 43.32,
115.649423122406,0.54, 0.05, -0.11, 83.74, -2.81, -27.40, 34.00, 13.88, 45.42,
115.75859951972961,-0.37, -0.43, -0.28, 18.19, -9.09, -29.17, 34.13, 10.23, 45.42,
115.86805868148804,3.21, -0.64, 0.09, -86.55, 35.52, -65.98, 35.82, 12.87, 44.03,
115.97862982749939,1.32, 0.05, -0.15, -76.11, -18.49, 46.45, 34.24, 17.91, 45.10,
116.08798480033875,0.09, 0.36, -0.27, -41.99, 4.33, 23.80, 35.79, 17.72, 42.24,
116.19686841964722,0.60, -0.08, -0.02, 70.19, -67.69, 3.17, 38.61, 14.72, 39.98,
116.30786538124084,2.00, 0.04, 0.17, 28.81, 89.36, 1.53, 35.38, 13.76, 44.45,
116.4184000492096,-0.07, 0.00, -0.27, 24.60, 1.53, -16.48, 34.39, 11.00, 43.52,
116.52693462371826,-0.02, -0.05, 0.03, 8.06, -64.76, -25.09, 34.23, 13.79, 45.59,
116.63755297660828,2.79, -0.48, -0.12, -72.39, 3.97, 14.89, 34.68, 18.25, 45.28,
116.74699020385742,0.37, -0.06, -0.22, -38.09, -8.24, 27.10, 32.78, 21.52, 45.31,
116.85753083229065,-0.50, 0.16, -0.17, -18.74, -19.10, 10.86, 33.06, 22.78, 44.63,
116.96684050559998,1.59, -0.27, -0.17, -16.91, 31.62, 37.05, 35.05, 21.74, 43.88,
117.07675576210022,1.34, 0.08, 0.04, 53.16, 67.44, 3.66, 30.88, 17.26, 46.64,
117.18503737449646,0.80, -0.26, -0.40, 23.19, 0.12, -12.15, 31.18, 13.29, 46.08,
117.2941427230835,1.27, -0.63, -0.06, 13.55, -111.57, -26.98, 32.81, 16.06, 45.91,
117.40387439727783,1.41, -0.10, -0.15, -78.49, 71.04, 5.19, 33.44, 21.19, 44.25,
117.51467704772949,0.30, 0.23, -0.23, -3.42, -19.53, 2.56, 30.99, 24.13, 44.23,
117.62441372871399,0.21, 0.23, -0.13, 56.09, -57.19, -5.25, 33.02, 22.63, 44.48,
117.73419189453125,2.15, 0.74, -0.26, 77.45, -31.49, -5.37, 34.23, 20.36, 42.74,
117.84436464309692,0.36, 0.03, -0.06, 61.16, 12.51, -6.90, 33.00, 14.90, 45.84,
117.95295310020447,-0.23, -0.18, -0.30, -9.03, -31.86, -12.15, 35.02, 10.84, 42.44,
118.06319856643677,3.14, 0.03, -0.13, -24.11, 9.34, -25.02, 35.25, 15.08, 44.81,
118.17197346687317,0.63, 0.20, -0.11, -46.81, -2.50, 17.64, 34.17, 17.91, 44.73,
118.2822265625,-0.14, 0.19, -0.23, 0.37, -18.19, 8.85, 34.00, 19.84, 44.38,
118.3918445110321,2.96, -0.05, 0.04, 20.81, 23.99, -6.53, 34.48, 18.51, 44.34,
118.50279355049133,1.38, -0.27, 0.22, 54.69, 83.86, 22.77, 33.01, 12.48, 46.72,
118.61229157447815,0.79, -0.11, -0.21, -1.28, 36.32, -11.60, 31.46, 9.27, 45.72,
118.7223687171936,0.49, -0.42, -0.26, -12.15, -96.25, -15.75, 32.86, 11.41, 46.04,
118.8323884010315,1.75, -0.39, -0.04, -78.74, 16.42, 26.25, 33.28, 16.05, 45.80,
118.94201135635376,0.05, 0.03, -0.22, -40.89, -5.98, 10.44, 33.50, 19.40, 44.01,
119.05238628387451,-0.03, 0.12, -0.19, 37.66, -43.70, 5.43, 35.11, 21.00, 42.93,
119.16147899627686,1.97, 0.85, -0.32, 80.51, 3.36, 11.54, 35.78, 18.65, 42.85,
119.27096819877625,0.56, -0.01, -0.05, 73.06, 19.71, -13.18, 34.14, 11.58, 45.67,
119.38075375556946,-0.25, -0.15, -0.20, -38.15, -11.23, -17.03, 33.34, 9.63, 45.96,
119.49164009094238,1.53, 0.19, -0.32, -34.85, -2.01, -37.96, 34.47, 14.17, 45.68,
119.60126519203186,1.09, 0.06, -0.06, -82.58, 50.29, 16.30, 33.94, 20.07, 45.74,
119.71166920661926,-0.02, 0.03, -0.21, -41.87, 16.30, 8.00, 31.79, 22.69, 45.92,
119.82171368598938,1.50, 0.40, 0.01, 87.52, -32.65, 3.23, 33.42, 21.47, 44.43,
119.9307382106781,1.30, -0.18, -0.15, 85.51, 118.04, 16.85, 34.14, 15.64, 46.41,
120.04020023345947,-0.19, -0.33, -0.20, 63.84, -2.01, 2.26, 31.31, 11.10, 47.57,
120.15052580833435,0.60, -0.36, -0.26, -34.67, -53.28, -11.17, 32.36, 10.27, 47.68,
120.26067113876343,1.71, -0.18, -0.23, -110.23, -17.88, 2.38, 34.89, 16.10, 45.73,
120.36977338790894,0.38, 0.02, -0.14, -65.92, 7.69, 11.60, 33.44, 20.83, 45.89,
120.4799370765686,-0.21, 0.10, -0.32, 37.17, -31.68, 10.13, 34.78, 21.51, 44.08,
