Time (s),Accel_X,Accel_Y,Accel_Z,Gyro_X,Gyro_Y,Gyro_Z,Mag_X,Mag_Y,Mag_Z
0.0009989738464355469,1.27, 0.14, 0.22, -150.57, -35.46, -25.15, 42.02, 18.91, 30.21,
0.0009989738464355469,-0.34, 0.08, -0.23, -44.49, -26.18, -1.10, 41.91, 20.25, 27.42,
0.0026395320892333984,0.32, -0.11, 0.21, 12.39, -2.81, 10.01, 42.05, 22.31, 26.60,
0.00356292724609375,2.69, 0.98, 0.67, 128.05, 31.92, 3.72, 42.33, 20.28, 29.91,
0.00356292724609375,0.23, -0.63, -0.26, 101.07, -13.24, 33.51, 42.54, 11.41, 29.37,
0.004559755325317383,-0.12, -0.35, -0.29, 9.83, -58.23, -4.46, 42.14, 8.39, 29.24,
0.00556182861328125,2.76, 0.27, 0.74, -69.95, 63.72, -35.58, 42.48, 11.18, 30.91,
0.006560802459716797,0.83, 0.22, 0.11, -139.40, -34.61, -17.94, 42.22, 15.71, 30.00,
0.006560802459716797,-0.43, -0.02, -0.16, -48.28, 125.92, -12.27, 41.80, 15.64, 32.34,
0.007559776306152344,0.08, 0.05, 0.38, 115.17, -130.13, -24.35, 42.09, 17.60, 28.65,
0.008563041687011719,2.26, 0.57, 0.58, 138.00, 13.18, 44.80, 41.93, 16.21, 30.75,
0.00956106185913086,-0.28, -0.39, -0.01, 110.90, 34.97, -4.52, 42.10, 6.95, 30.07,
0.01055908203125,0.02, -0.38, -0.25, 2.08, -80.93, -9.09, 41.97, 5.47, 28.92,
0.011561870574951172,3.22, -0.19, 0.58, -92.65, 42.30, -27.83, 42.93, 10.07, 30.88,
0.011561870574951172,1.17, 0.29, 0.25, -130.37, -40.41, -13.12, 42.86, 14.93, 29.87,
0.013087749481201172,-0.30, -0.02, -0.07, 20.63, -36.25, -16.66, 42.87, 15.36, 28.53,
0.013087749481201172,0.22, 0.05, 0.05, 18.80, -4.39, 44.98, 42.60, 15.97, 27.17,
0.014124870300292969,2.79, 1.18, 0.66, 136.72, 24.90, 39.86, 42.29, 15.06, 31.73,
0.015168428421020508,-0.06, -0.44, 0.04, 96.74, 7.20, 4.09, 41.87, 6.52, 30.74,
0.016207456588745117,-0.18, -0.15, -0.14, 23.68, -16.05, -42.91, 42.03, 5.19, 29.88,
0.017105579376220703,2.70, -0.01, 0.52, -86.73, 34.67, -41.87, 43.30, 7.97, 29.64,
0.017105579376220703,1.26, 0.08, 0.40, -160.10, -46.63, -30.27, 42.99, 13.46, 28.70,
0.01810598373413086,-0.40, 0.03, -0.13, -7.45, -9.16, -19.47, 42.72, 16.91, 26.62,
0.01920461654663086,0.01, 0.02, -0.20, 34.12, 6.16, 7.75, 42.63, 19.14, 26.10,
0.02020430564880371,2.53, 1.13, 0.47, 98.02, 4.76, -11.41, 42.77, 18.27, 30.02,
0.02020430564880371,0.05, -0.56, 0.06, 97.78, 13.37, 39.55, 42.07, 8.19, 29.58,
0.021203279495239258,-0.06, -0.30, -0.15, 39.55, -38.21, -34.18, 42.36, 9.14, 30.88,
0.022202014923095703,3.73, -0.11, 1.49, -104.61, 67.44, -34.85, 42.18, 14.56, 31.86,
0.023417949676513672,1.23, 0.10, 0.19, -126.71, -47.12, -14.22, 42.79, 18.25, 31.75,
0.024201631546020508,-0.21, 0.09, -0.20, 6.96, -17.58, -0.55, 42.46, 18.93, 27.59,
0.024201631546020508,0.20, -0.05, -0.11, -24.23, -3.78, 33.33, 42.64, 19.87, 24.17,
0.025197744369506836,2.48, 1.06, 0.62, 135.19, -5.74, 31.98, 42.44, 18.01, 28.98,
0.026206016540527344,-0.08, -0.46, -0.08, 106.51, 2.08, 22.09, 41.65, 7.69, 29.16,
0.027200698852539062,-0.05, -0.13, -0.18, 47.06, -63.78, -40.41, 42.00, 8.01, 29.28,
0.027200698852539062,2.82, 0.15, 0.53, -58.78, 41.14, -41.50, 43.40, 11.19, 30.69,
0.028197765350341797,1.26, 0.11, 0.27, -124.69, -52.49, -2.44, 42.05, 14.62, 31.97,
0.029200315475463867,-0.18, 0.16, -0.04, -16.48, -9.95, -0.98, 42.47, 16.20, 28.69,
0.029200315475463867,0.32, -0.01, -0.08, -33.69, -18.07, 18.98, 42.03, 18.09, 27.93,
0.03011465072631836,2.66, 1.04, 0.60, 109.62, 7.93, 30.03, 41.77, 15.32, 31.58,
0.031206846237182617,-0.21, -0.42, 0.06, 61.65, 24.17, 14.47, 41.38, 7.93, 29.04,
0.031206846237182617,-0.04, -0.31, -0.14, 3.91, -31.19, -16.42, 41.98, 7.65, 27.80,
0.03220200538635254,1.73, -0.16, 0.73, -45.84, 40.65, -44.92, 42.53, 12.00, 29.14,
0.03220200538635254,0.73, 0.21, 0.37, -75.74, -44.98, -8.73, 41.99, 15.22, 31.02,
0.03220200538635254,0.16, 0.11, -0.12, -21.61, 45.65, -7.14, 41.31, 17.46, 29.10,
0.03381705284118652,0.61, 0.01, -0.03, 66.59, -7.45, 10.44, 41.44, 15.59, 31.82,
0.03381705284118652,2.42, 1.59, 0.42, 86.55, 16.66, -12.39, 40.69, 11.96, 33.19,
0.034925222396850586,0.17, -0.31, 0.11, 37.78, 59.14, 18.62, 39.01, 3.89, 33.17,
0.034925222396850586,0.14, -0.19, -0.26, -0.37, 0.79, -18.13, 39.12, 3.66, 33.67,
0.03592991828918457,1.66, 0.24, 0.50, -40.65, 1.53, -47.06, 41.08, 7.45, 32.74,
0.03693246841430664,1.09, 0.08, 0.26, -119.14, -37.23, -36.44, 41.11, 12.16, 33.09,
0.03693246841430664,-0.35, 0.15, -0.30, 35.95, 24.17, -25.51, 40.82, 17.33, 31.36,
0.03792738914489746,0.56, -0.12, 0.19, -75.38, -17.94, 44.01, 41.67, 17.80, 30.37,
0.03792738914489746,2.17, 0.84, 0.61, 100.89, 46.39, 34.18, 41.88, 14.86, 32.14,
0.03893136978149414,-0.13, -0.22, -0.04, 61.89, 12.15, 15.44, 40.37, 6.35, 31.67,
0.03992438316345215,0.19, -0.30, -0.17, 8.79, -15.26, -25.63, 40.49, 6.71, 32.18,
0.03992438316345215,2.64, 0.15, 0.58, -77.03, 18.80, 0.31, 41.97, 11.47, 32.87,
0.04093146324157715,0.99, 0.31, 0.27, -114.14, -42.24, -34.48, 41.59, 15.21, 31.85,
0.04093146324157715,-0.00, -0.02, -0.50, 65.19, -6.53, -26.67, 41.70, 18.63, 28.31,
0.04192996025085449,0.59, -0.04, 0.08, -21.97, 21.24, 22.83, 41.83, 20.75, 26.70,
0.04293513298034668,2.46, 0.94, 0.66, 101.99, 44.80, 3.30, 40.82, 18.88, 30.37,
0.04293513298034668,-0.02, -0.35, -0.05, 91.98, -38.94, 12.45, 41.70, 10.60, 29.24,
0.043941497802734375,0.23, -0.28, -0.30, 33.45, -54.99, 21.48, 41.65, 8.67, 30.04,
0.043941497802734375,1.99, -0.72, 0.86, -68.18, 80.57, -14.71, 43.08, 8.69, 27.34,
0.044927358627319336,1.22, 0.13, 0.35, -115.66, -5.55, -13.24, 41.48, 15.14, 31.04,
0.04552960395812988,-0.13, 0.06, -0.12, 9.34, -5.37, 7.32, 41.71, 18.55, 29.92,
0.04552960395812988,0.96, -0.10, 0.05, -62.19, -1.46, 10.44, 41.52, 19.06, 29.90,
0.04663872718811035,2.08, 0.65, 0.52, 63.90, 36.13, 3.78, 40.54, 19.86, 33.26,
0.04663872718811035,0.41, -0.17, -0.07, 92.35, 35.22, -20.02, 40.54, 15.16, 34.68,
0.047644853591918945,0.17, -0.20, -0.33, 89.17, -77.15, 28.26, 39.27, 11.72, 36.47,
0.04863405227661133,1.44, -0.14, 0.41, -20.51, 3.78, -25.70, 41.86, 10.95, 32.59,
0.04863405227661133,1.51, -0.08, 0.34, -81.54, -18.86, 3.54, 41.24, 14.95, 34.51,
0.049628496170043945,-0.07, 0.05, -0.11, -22.77, 38.21, 41.69, 40.73, 14.20, 33.41,
0.049628496170043945,-0.07, 0.17, -0.07, 17.52, 13.37, -23.93, 41.99, 14.81, 29.70,
0.0506284236907959,2.34, 0.43, 0.45, 46.63, 28.20, -16.36, 41.76, 16.85, 31.58,
0.05162763595581055,0.49, -0.43, 0.32, 67.08, 30.76, 50.35, 42.32, 13.50, 31.20,
0.05162763595581055,-0.12, -0.11, -0.31, -24.48, -20.69, 4.03, 40.82, 9.90, 32.57,
0.05262875556945801,1.67, 0.01, 0.59, -21.18, -20.32, -6.10, 41.81, 11.40, 31.93,
0.05262875556945801,2.44, -0.01, 0.61, -68.48, -0.31, 7.51, 40.84, 13.70, 35.42,
0.05362844467163086,0.65, 0.30, 0.19, -55.91, 13.98, 42.97, 40.65, 14.97, 33.41,
0.05362844467163086,0.25, 0.17, -0.13, 9.77, -52.43, -47.55, 39.73, 16.77, 31.95,
0.05504727363586426,2.37, 0.87, 0.58, -42.42, 47.00, -14.89, 41.05, 19.45, 31.63,
0.05553627014160156,0.38, -0.18, 0.23, 16.42, 48.34, 8.54, 39.97, 19.17, 33.72,
0.05553627014160156,1.12, 0.24, 0.28, 43.95, 12.02, -26.61, 38.42, 18.82, 36.89,
0.0565335750579834,1.25, -0.00, -0.17, 34.42, -9.40, -2.26, 37.35, 16.69, 40.30,
0.05753350257873535,1.05, 0.05, 0.05, 22.64, -7.75, -3.30, 36.98, 16.16, 38.44,
0.05753350257873535,0.43, 0.06, 0.00, -12.45, 31.56, 11.29, 37.34, 13.99, 39.28,
0.05853414535522461,1.32, -0.06, 0.21, -25.15, 1.40, -16.72, 36.00, 16.69, 41.21,
0.05853414535522461,1.03, 0.02, -0.25, -23.25, 6.41, -1.04, 36.74, 17.92, 40.36,
0.05953407287597656,1.19, -0.05, -0.08, -27.10, 10.44, -2.44, 36.45, 17.92, 40.22,
0.06053352355957031,0.38, 0.04, -0.03, 7.14, 3.11, -4.82, 35.90, 18.29, 40.42,
0.06053352355957031,0.94, -0.01, 0.13, 23.32, 18.01, 2.20, 35.85, 16.44, 40.95,
0.06153368949890137,1.11, 0.04, -0.16, 18.92, -43.52, 3.72, 36.08, 14.44, 40.61,
0.06153368949890137,1.48, 0.01, 0.08, -16.54, -10.80, -16.66, 38.22, 14.27, 39.21,
0.06253433227539062,0.42, 0.05, 0.13, -14.34, -24.23, 24.41, 38.44, 14.53, 36.78,
0.06353378295898438,0.90, -0.04, 0.10, -24.54, -20.45, -31.98, 40.05, 15.05, 35.46,
0.06353378295898438,1.51, -0.00, 0.27, -0.37, 0.67, 9.28, 39.45, 17.68, 35.33,
0.06353378295898438,1.48, 0.20, -0.18, 2.14, 3.54, -9.64, 39.21, 18.87, 35.82,
0.06503748893737793,0.59, -0.07, 0.10, 20.02, -39.31, -10.99, 39.79, 18.81, 33.12,
0.06604194641113281,0.64, 0.02, 0.23, 4.52, -3.97, 4.94, 40.08, 16.92, 32.09,
0.06604194641113281,1.12, 0.06, 0.24, 2.32, 8.48, 3.91, 40.17, 16.28, 33.20,
0.06704187393188477,1.15, -0.06, 0.11, -14.71, -32.23, 25.57, 40.71, 16.87, 32.54,
0.06704187393188477,1.03, -0.19, 0.24, -29.85, -15.63, -25.15, 40.83, 16.80, 31.10,
0.06804156303405762,0.39, 0.09, 0.13, -32.04, -6.04, 22.95, 40.52, 16.75, 30.35,
0.06804156303405762,0.98, 0.00, 0.35, -24.66, 21.73, -5.13, 40.78, 16.88, 29.86,
0.06904149055480957,1.21, 0.10, 0.29, -8.54, 15.32, 15.93, 39.64, 17.68, 31.86,
0.07004117965698242,1.13, 0.14, -0.28, 6.47, -16.42, -19.29, 39.43, 18.57, 33.22,
0.07004117965698242,0.82, -0.15, 0.22, 20.32, -19.90, -6.04, 40.71, 18.12, 31.91,
0.0711359977722168,0.65, 0.18, 0.22, -1.65, 7.87, 4.76, 39.83, 18.54, 31.41,
0.0711359977722168,1.01, -0.00, 0.33, 6.04, 29.85, 9.40, 39.09, 17.66, 31.86,
0.07214641571044922,1.18, 0.19, 0.16, 3.54, 1.89, 16.42, 38.07, 16.65, 34.66,
0.07214641571044922,1.05, 0.13, -0.05, -0.85, -35.22, 4.76, 38.73, 15.43, 32.81,
0.0731353759765625,0.91, 0.28, 0.11, -23.38, 10.62, -4.94, 38.85, 16.85, 32.40,
0.07415270805358887,0.82, 0.13, 0.19, 13.49, 8.00, 4.39, 38.09, 15.78, 32.98,
0.07415270805358887,1.05, 0.12, 0.27, -3.78, 2.69, -19.29, 37.92, 16.72, 34.45,
0.07514572143554688,1.20, 0.09, 0.10, -21.97, 19.90, 5.86, 38.11, 18.71, 34.11,
0.07514572143554688,1.04, 0.22, -0.15, -2.26, 21.06, -9.34, 36.78, 19.27, 35.50,
0.07614636421203613,1.07, 0.20, 0.03, 25.33, 5.49, -0.73, 34.96, 19.51, 37.27,
0.07614636421203613,0.79, 0.08, 0.06, 11.17, 13.79, -0.43, 35.08, 18.52, 37.22,
0.07713437080383301,1.02, 0.06, 0.05, 13.49, -2.01, -0.06, 34.35, 17.65, 38.44,
0.07814502716064453,1.22, 0.28, -0.07, -3.42, -13.49, 6.23, 35.40, 16.48, 37.84,
0.07814502716064453,1.02, -0.11, -0.21, -8.85, -7.39, -6.35, 36.23, 16.65, 37.00,
0.07915568351745605,0.74, 0.16, 0.11, 2.62, 13.92, -0.49, 36.00, 17.47, 36.73,
0.07915568351745605,0.86, 0.12, -0.06, -23.93, 18.43, 10.01, 35.05, 16.74, 37.68,
0.08014607429504395,0.93, 0.13, 0.08, -29.72, -80.57, -5.19, 36.82, 17.52, 35.39,
0.08014607429504395,1.30, 0.06, 0.12, -9.46, 67.02, 0.31, 36.10, 18.65, 35.53,
0.08114123344421387,1.01, 0.28, -0.30, 1.40, -5.80, -5.49, 35.49, 19.73, 38.20,
0.08114123344421387,1.09, 0.12, -0.02, 6.47, 26.61, 11.47, 34.14, 19.31, 38.02,
0.08214592933654785,0.84, 0.18, -0.08, -6.41, -6.96, -7.26, 33.47, 18.32, 39.27,
0.08314990997314453,0.93, 0.19, 0.00, -12.39, 5.43, 3.72, 33.39, 18.60, 39.22,
0.08314990997314453,1.21, 0.29, 0.01, -5.07, 2.50, 5.98, 34.03, 18.53, 39.15,
0.0841531753540039,0.97, 0.05, -0.06, 30.21, -25.82, 5.43, 34.47, 17.87, 38.75,
0.0841531753540039,1.11, 0.20, -0.07, -8.91, 21.30, 1.53, 35.24, 16.69, 37.88,
0.08514547348022461,0.93, 0.14, -0.13, -1.53, -8.91, -4.52, 34.66, 16.99, 38.26,
0.08514547348022461,0.98, 0.15, 0.17, -17.21, -20.14, -0.49, 34.89, 18.08, 38.12,
0.08614015579223633,1.08, 0.19, -0.09, -26.18, 22.77, 3.11, 37.68, 17.75, 34.45,
0.08701300621032715,1.02, 0.24, -0.07, -9.28, -20.75, -4.21, 36.16, 19.01, 35.29,
0.08701300621032715,0.94, 0.32, -0.03, 25.76, 38.57, -1.65, 36.32, 18.18, 36.21,
0.08801770210266113,0.83, 0.08, -0.00, 30.09, -34.12, -3.48, 36.45, 16.03, 35.74,
0.08901691436767578,0.86, 0.21, 0.17, -1.34, -16.54, -2.08, 37.52, 15.98, 34.46,
0.08901691436767578,0.97, 0.24, 0.17, 5.31, -2.75, -0.55, 37.35, 15.67, 35.08,
0.09001684188842773,1.26, 0.18, 0.12, -0.98, 11.60, 8.18, 37.13, 16.72, 33.76,
0.09001684188842773,0.62, 0.06, -0.13, 6.71, 1.22, -0.55, 36.69, 15.39, 34.39,
0.09101724624633789,1.10, 0.08, 0.01, -50.66, 16.11, -8.73, 36.51, 16.69, 35.60,
0.09101724624633789,0.83, 0.09, -0.00, -13.85, 11.41, -1.28, 35.94, 17.88, 36.88,
0.09201693534851074,0.95, 0.02, 0.17, -37.96, 13.92, -2.93, 35.58, 19.64, 37.30,
0.0930168628692627,1.00, 0.16, -0.06, -40.10, 32.35, -2.62, 34.68, 21.74, 37.55,
0.0930168628692627,1.10, 0.13, -0.17, -54.87, 46.51, -18.01, 31.92, 24.77, 37.94,
0.09401702880859375,1.00, 0.12, -0.34, -10.38, 1.34, -9.77, 30.02, 28.27, 39.67,
0.09401702880859375,0.97, 0.09, -0.28, 1.83, -12.51, -18.49, 30.29, 29.15, 38.42,
0.0950171947479248,0.95, 0.05, -0.18, 5.80, -12.02, -6.10, 30.87, 29.30, 38.07,
0.09601712226867676,0.96, 0.05, -0.10, 4.76, -2.87, 4.46, 30.96, 29.60, 37.02,
0.09601712226867676,1.04, -0.00, -0.16, 6.71, -12.39, -2.38, 31.15, 28.81, 37.19,
0.09701728820800781,0.98, 0.07, -0.13, -6.71, 11.05, -3.60, 31.80, 28.99, 37.18,
0.09752106666564941,1.10, 0.08, -0.25, -2.93, 15.99, -12.88, 31.30, 29.37, 37.90,
0.0985257625579834,0.97, -0.10, -0.25, -3.97, -2.08, 8.67, 30.63, 29.80, 38.71,
0.09952545166015625,0.94, -0.03, -0.26, -14.40, -4.03, 1.95, 31.31, 29.80, 37.51,
0.09952545166015625,0.99, -0.01, -0.20, -4.64, 4.33, -5.00, 30.40, 30.44, 37.52,
0.1005253791809082,0.99, -0.07, -0.24, -10.62, -1.95, 2.01, 30.35, 30.49, 38.17,
0.10152530670166016,0.97, -0.04, -0.16, -0.49, -9.64, 14.10, 30.79, 30.51, 36.93,
0.10167360305786133,0.99, 0.02, -0.09, -19.17, 1.04, -4.58, 31.52, 30.38, 37.61,
0.10252594947814941,0.92, 0.07, -0.18, -35.03, 21.48, -15.63, 30.58, 32.42, 36.06,
0.10252594947814941,0.96, -0.02, -0.27, -41.50, 20.94, -12.63, 29.11, 34.78, 35.68,
0.10352563858032227,1.00, -0.05, -0.32, -16.42, 8.67, -14.28, 27.62, 37.08, 35.40,
0.10452532768249512,1.03, -0.17, -0.39, -5.86, -4.09, -10.50, 27.08, 37.85, 35.38,
0.10452532768249512,1.01, -0.18, -0.36, 13.55, -4.70, -2.38, 26.27, 38.87, 35.18,
0.10552549362182617,0.95, -0.09, -0.34, 24.66, 0.18, 6.04, 26.33, 37.66, 36.00,
0.10552549362182617,0.98, -0.08, -0.30, 22.83, -13.00, 5.62, 27.19, 35.42, 37.43,
0.10652542114257812,1.02, 0.01, -0.26, 18.49, -21.73, 5.62, 28.36, 33.33, 36.83,
0.10652542114257812,1.11, 0.08, -0.20, 5.43, -34.30, 3.72, 29.83, 33.42, 37.46,
0.10752534866333008,0.98, 0.17, -0.13, 12.76, -13.92, -1.22, 31.51, 32.59, 36.06,
0.10852527618408203,1.07, 0.01, -0.15, -8.36, -43.40, 5.98, 32.42, 32.25, 34.68,
0.10852527618408203,0.99, -0.17, -0.05, -6.71, -10.13, 2.32, 34.47, 31.71, 31.14,
0.10952520370483398,0.78, -0.05, 0.00, 3.97, -34.18, 6.71, 35.11, 31.53, 29.37,
0.10952520370483398,0.94, -0.10, 0.11, -8.12, -19.71, -12.39, 36.69, 31.97, 27.62,
0.11052513122558594,1.00, -0.10, 0.01, -6.41, -1.22, -12.57, 36.06, 32.41, 27.29,
0.11052513122558594,0.93, -0.20, 0.15, -16.48, -29.66, -2.62, 35.77, 33.79, 27.06,
0.11210513114929199,1.02, -0.04, 0.13, -42.11, -11.23, -4.58, 35.33, 33.94, 24.73,
0.11210513114929199,0.86, 0.04, 0.10, -29.54, -7.93, 14.47, 36.07, 34.02, 21.73,
0.11303138732910156,1.01, 0.15, 0.11, -23.25, 1.65, 22.89, 36.72, 33.17, 20.70,
0.11303138732910156,0.99, 0.24, 0.20, -12.45, -3.11, 4.03, 37.28, 31.90, 20.30,
0.11403131484985352,0.99, 0.14, 0.14, -16.42, -11.90, -23.93, 37.61, 32.85, 20.12,
0.11503458023071289,1.09, 0.14, 0.24, -63.66, -27.53, -39.00, 35.66, 35.40, 17.66,
0.11503458023071289,0.91, -0.00, 0.31, -88.44, -2.26, -22.64, 34.38, 37.15, 15.04,
0.11603403091430664,1.00, -0.17, 0.13, -75.87, 18.68, -25.70, 33.42, 37.55, 10.00,
0.11603403091430664,1.04, -0.19, 0.22, -76.84, 1.16, -15.01, 32.76, 38.50, 7.34,
0.11713624000549316,0.89, -0.11, 0.16, -44.56, 1.71, -14.40, 32.24, 37.67, 4.61,
0.11713624000549316,1.11, 0.12, 0.30, -59.33, 10.25, -7.75, 31.77, 36.94, 1.73,
0.11813211441040039,0.87, -0.10, 0.04, -39.31, 23.68, 22.03, 32.21, 35.57, 2.38,
0.11912751197814941,1.26, 0.03, 0.13, -35.64, 11.84, -16.48, 34.07, 32.56, 1.00,
0.11912751197814941,0.96, 0.03, 0.09, -29.36, -3.36, -13.92, 33.47, 32.91, 0.84,
0.12013673782348633,1.09, -0.04, 0.06, -34.06, -6.59, 4.82, 32.91, 32.41, -1.66,
0.12013673782348633,0.86, 0.16, 0.11, 1.34, -4.39, 12.27, 33.73, 30.51, -2.36,
0.1211235523223877,0.96, 0.10, 0.05, 31.68, 14.65, 28.38, 34.25, 29.94, -2.43,
0.1211235523223877,0.97, 0.08, 0.06, 16.72, 23.56, 7.26, 36.16, 29.91, 0.82,
0.12214112281799316,0.98, 0.15, -0.01, 42.42, 30.88, -5.62, 37.41, 30.38, 3.48,
0.12274909019470215,1.06, 0.16, -0.03, 54.26, 6.16, 2.87, 38.24, 31.65, 4.76,
0.12274909019470215,0.99, 0.08, -0.03, 45.78, -7.08, 0.98, 38.12, 32.43, 7.39,
0.12385678291320801,1.03, 0.10, 0.02, 10.13, 0.00, -1.65, 38.83, 33.51, 8.73,
0.12484908103942871,1.10, 0.13, 0.02, 13.24, -0.18, -5.80, 38.24, 34.33, 8.97,
0.12484908103942871,1.05, 0.09, 0.05, -1.59, 0.43, -6.35, 37.99, 34.25, 8.72,
0.12586140632629395,1.01, 0.09, 0.07, -5.74, -2.56, 0.24, 37.21, 34.61, 8.39,
0.12685847282409668,1.04, 0.12, 0.04, -0.73, -5.31, 2.20, 38.18, 34.51, 8.04,
0.12785744667053223,1.03, 0.13, 0.02, -10.99, 0.61, 4.52, 37.46, 34.20, 7.10,
0.12785744667053223,1.00, 0.16, 0.03, -13.12, -3.17, 10.99, 38.26, 32.79, 7.57,
0.1288609504699707,0.93, 0.15, 0.04, 4.82, -3.60, 25.15, 38.23, 31.38, 7.54,
0.12985897064208984,0.96, 0.15, 0.02, 16.97, -0.92, 21.36, 39.23, 28.76, 8.75,
0.13097095489501953,0.92, 0.25, -0.00, 15.93, 2.26, 12.27, 39.16, 27.55, 8.94,
0.1319730281829834,0.90, 0.27, 0.00, 15.81, 13.06, 6.96, 40.00, 27.17, 9.24,
0.1329658031463623,0.91, 0.30, 0.09, 6.35, 24.96, 21.73, 40.11, 26.32, 11.76,
0.13396692276000977,0.93, 0.38, -0.05, 3.54, 25.88, 38.82, 40.88, 24.65, 13.29,
0.13496828079223633,0.99, 0.42, -0.12, 20.69, 34.97, 47.42, 42.27, 21.45, 15.56,
0.13598847389221191,0.90, 0.49, -0.25, 15.14, 11.60, 17.40, 42.76, 17.27, 20.24,
0.13697075843811035,0.86, 0.56, -0.13, 15.87, 10.07, 22.40, 42.49, 15.70, 19.62,
0.13697075843811035,0.86, 0.60, -0.18, -7.08, 7.69, 16.05, 42.19, 14.25, 19.46,
0.13797569274902344,0.81, 0.62, -0.17, -15.32, -6.84, -0.49, 42.05, 13.77, 20.68,
0.13896727561950684,0.84, 0.61, -0.16, -21.18, -8.12, -6.65, 41.86, 14.03, 20.39,
0.13896727561950684,0.89, 0.64, -0.23, -24.48, -13.43, -15.26, 42.20, 14.73, 19.78,
0.13998150825500488,0.93, 0.48, -0.23, -25.70, -33.20, -37.90, 41.82, 17.71, 16.47,
0.14097118377685547,0.93, 0.39, -0.22, -33.39, -45.35, -47.79, 41.22, 21.73, 14.14,
0.14097118377685547,0.87, 0.31, -0.07, -24.96, -37.05, -42.24, 39.77, 25.32, 10.40,
0.1419680118560791,1.03, 0.27, -0.01, -40.65, -39.31, -42.42, 38.48, 27.82, 7.65,
0.1419680118560791,0.76, 0.26, 0.27, -16.60, -42.91, -57.25, 36.46, 30.32, 4.43,
0.14296817779541016,1.00, 0.18, 0.23, -5.74, -8.73, -24.35, 33.28, 32.84, 1.11,
0.14397001266479492,0.97, 0.02, 0.15, 23.80, -0.73, 20.63, 32.53, 32.70, -0.54,
0.14397001266479492,1.01, 0.11, 0.15, 22.83, 5.49, 6.23, 33.56, 32.80, 1.54,
0.14496922492980957,1.02, 0.02, 0.08, -9.03, -15.81, 14.89, 33.59, 32.01, 1.43,
0.14557790756225586,0.89, 0.15, 0.13, 0.18, -19.29, 1.28, 33.39, 31.29, -0.79,
0.14557790756225586,1.04, 0.14, 0.27, 18.62, -5.49, 3.36, 33.68, 31.29, -0.51,
0.14668989181518555,0.91, 0.16, 0.27, 31.74, 4.33, -1.77, 33.30, 31.60, 0.43,
0.14668989181518555,0.94, 0.08, 0.23, 49.99, 10.56, -1.65, 33.52, 33.18, 1.70,
0.14768433570861816,0.95, 0.09, 0.15, 49.93, 14.22, 16.36, 34.61, 34.38, 6.13,
0.14768433570861816,0.98, 0.09, 0.22, 29.42, 11.41, 10.31, 35.14, 35.23, 7.79,
0.14883875846862793,1.05, -0.02, 0.13, -3.23, 11.84, -1.22, 35.99, 33.95, 9.89,
0.14969301223754883,0.91, 0.12, 0.11, 5.80, 8.24, -8.48, 35.47, 35.23, 10.36,
0.14969301223754883,1.08, 0.04, 0.12, -11.17, 4.70, 9.89, 35.69, 34.34, 10.05,
0.15068411827087402,0.98, 0.13, 0.09, -8.61, 2.38, 2.01, 36.17, 34.12, 8.92,
0.15068411827087402,0.99, 0.12, 0.11, -10.25, 1.71, 3.85, 36.82, 34.13, 10.44,
0.15168428421020508,1.00, 0.14, 0.07, -4.76, 3.11, 2.87, 36.69, 33.28, 9.13,
0.15268325805664062,1.00, 0.12, 0.10, -2.99, -1.83, -0.06, 36.82, 33.48, 9.72,
0.15268325805664062,1.00, 0.13, 0.11, -2.75, -2.93, 0.55, 36.79, 33.04, 9.09,
0.15368294715881348,0.98, 0.15, 0.10, -0.43, -3.11, 0.85, 36.84, 33.47, 9.36,
0.2562122344970703,1.01, 0.12, 0.12, -8.91, -5.98, 0.00, 37.15, 33.11, 9.29,
0.36698007583618164,0.97, 0.16, 0.12, -6.16, -4.52, -0.37, 36.67, 32.79, 8.23,
0.47662353515625,1.00, 0.13, 0.14, -8.85, -4.82, -0.31, 37.01, 32.14, 7.51,
0.5855066776275635,0.98, 0.16, 0.18, -12.08, -1.59, 0.06, 36.47, 32.37, 7.10,
0.6957662105560303,0.96, 0.15, 0.13, -2.44, -6.29, -2.44, 36.41, 32.06, 5.92,
0.8059837818145752,1.00, 0.16, 0.15, -2.62, -0.98, 0.61, 36.39, 31.62, 5.79,
0.915529727935791,0.98, 0.12, 0.11, -1.77, 1.34, 0.06, 35.85, 32.13, 7.24,
1.0258550643920898,1.00, 0.14, 0.19, -29.05, -3.97, -5.13, 35.55, 32.14, 6.09,
1.1357734203338623,0.90, 0.19, 0.17, -11.41, -4.58, 2.56, 35.42, 31.68, 5.46,
1.2450988292694092,1.02, 0.17, 0.16, -13.85, 2.26, 9.34, 36.23, 30.32, 6.07,
1.3547756671905518,0.96, 0.25, 0.18, -20.45, 10.62, -4.39, 35.56, 30.13, 4.81,
1.464442491531372,1.00, 0.21, 0.08, -25.88, 1.53, -0.06, 35.97, 29.41, 4.26,
1.5739080905914307,0.89, 0.24, 0.04, -12.27, -3.11, -6.96, 35.84, 28.83, 4.54,
1.6830992698669434,1.07, 0.19, 0.09, -29.54, 1.89, -9.77, 35.53, 29.53, 4.03,
1.7924575805664062,1.10, 0.20, 0.03, -42.48, -31.56, -10.86, 35.21, 28.45, 2.67,
1.903122901916504,0.87, 0.12, 0.07, -0.24, -18.92, -21.48, 33.46, 28.97, -0.29,
2.012345552444458,0.96, 0.08, 0.11, 0.67, -5.98, -13.18, 32.98, 30.77, 0.04,
2.121495246887207,1.02, 0.04, 0.18, 21.30, -21.42, -5.00, 32.20, 31.29, -1.66,
2.232950210571289,0.93, 0.00, 0.25, 48.10, -7.14, -7.32, 31.54, 33.01, -2.01,
2.3429059982299805,0.95, -0.06, 0.20, 33.08, 5.31, -10.74, 32.08, 34.81, -1.60,
2.452075242996216,0.95, -0.12, 0.23, 40.04, 5.74, -2.56, 32.35, 36.44, 0.82,
2.561436653137207,0.98, -0.16, 0.21, 18.07, 8.06, 10.80, 32.62, 38.02, 3.05,
2.6708831787109375,1.02, -0.01, 0.21, 21.24, 16.78, 15.44, 34.11, 38.46, 5.41,
2.7814579010009766,0.83, 0.07, 0.13, 37.05, 11.11, 21.24, 35.01, 37.10, 7.92,
2.891984462738037,1.11, 0.01, 0.07, -7.02, 24.17, 5.25, 35.51, 36.68, 10.19,
3.0007436275482178,1.06, 0.09, 0.20, 27.59, 6.35, 9.03, 35.94, 35.45, 10.96,
3.1098809242248535,0.93, 0.14, 0.05, 4.64, 4.76, 5.74, 36.45, 36.02, 12.23,
3.2191519737243652,1.02, 0.14, 0.03, 5.25, -0.18, 5.43, 37.18, 35.67, 12.82,
3.3299667835235596,1.05, 0.11, 0.03, -21.85, -4.15, 5.68, 37.26, 34.75, 13.05,
3.4399564266204834,1.01, 0.10, 0.07, -1.16, -7.26, 2.81, 37.70, 33.95, 12.56,
3.5496280193328857,0.98, 0.16, 0.08, -10.99, -4.82, -0.61, 37.63, 34.61, 11.57,
3.659705638885498,1.00, 0.15, 0.08, -7.32, -7.81, -3.11, 37.54, 34.75, 10.64,
3.7690834999084473,1.00, 0.15, 0.07, -14.47, -10.99, -5.19, 36.76, 34.72, 10.68,
3.8782382011413574,0.98, 0.10, 0.12, -2.99, -13.43, -3.91, 36.36, 34.79, 8.63,
3.9871671199798584,0.99, 0.10, 0.13, -3.11, -8.91, 0.18, 36.02, 34.96, 8.51,
4.096796751022339,0.97, 0.10, 0.16, -0.67, -10.01, -1.16, 35.86, 34.77, 6.86,
4.207164287567139,0.98, 0.08, 0.15, 1.77, -5.37, -1.16, 35.94, 35.02, 5.43,
4.316357612609863,0.97, 0.11, 0.16, -1.28, -0.31, 1.71, 35.64, 35.22, 5.74,
4.426771402359009,0.96, 0.11, 0.16, -0.18, 6.35, -1.04, 35.66, 35.35, 6.19,
4.53574275970459,1.01, 0.11, 0.25, -5.31, 5.19, 1.71, 35.56, 34.95, 6.09,
4.6459550857543945,0.95, 0.11, 0.17, -8.85, -17.21, -6.96, 35.84, 34.99, 6.51,
4.754561901092529,0.92, 0.17, 0.22, -3.05, -45.90, -11.84, 35.13, 35.52, 5.08,
4.864905118942261,1.05, 0.12, 0.33, 6.29, -37.84, -9.16, 32.69, 36.28, 2.56,
4.974337816238403,0.83, 0.02, 0.33, 3.05, -13.00, -18.80, 31.35, 37.66, 0.04,
5.085063457489014,0.80, -0.03, 0.33, -4.15, -12.88, -2.26, 30.83, 38.20, -0.37,
5.194298505783081,1.07, -0.06, 0.36, 5.31, 23.74, -5.62, 30.60, 38.33, 0.81,
5.304784536361694,0.92, -0.08, 0.29, 2.14, 16.66, -2.20, 31.15, 38.93, 1.22,
5.4142537117004395,0.88, -0.07, 0.26, -4.27, 22.16, -6.65, 31.48, 38.46, 1.53,
5.525265216827393,1.14, -0.11, 0.22, -14.47, 2.93, -0.18, 31.80, 38.62, 3.26,
5.6358726024627686,1.05, 0.05, 0.33, -26.61, -13.55, 10.74, 31.75, 37.16, 1.12,
5.7442755699157715,0.94, 0.03, 0.22, -23.13, -3.54, -0.24, 32.17, 36.12, 0.52,
5.854671955108643,0.99, 0.02, 0.27, -15.93, -2.99, -11.35, 31.32, 36.47, -0.89,
5.965969562530518,1.00, 0.02, 0.26, -14.65, -9.95, -5.92, 30.86, 36.28, -2.06,
6.07581353187561,0.96, 0.01, 0.30, -4.21, -11.05, -1.53, 29.58, 35.75, -1.75,
6.185680389404297,0.97, -0.01, 0.33, -6.90, -15.08, -1.77, 29.44, 35.99, -4.32,
6.29592752456665,0.92, 0.06, 0.38, -2.14, -10.13, 4.39, 28.74, 35.71, -5.22,
6.404979705810547,0.89, 0.03, 0.36, 9.52, -8.24, 8.24, 28.72, 35.44, -4.74,
6.513482570648193,0.85, 0.03, 0.31, 15.26, -5.62, 9.34, 28.72, 35.64, -4.16,
6.622799873352051,0.92, 0.01, 0.44, 11.96, 4.94, 6.71, 29.20, 35.78, -4.70,
6.732805490493774,0.97, 0.04, 0.45, 6.65, 2.26, -0.61, 28.99, 36.16, -3.04,
6.842358589172363,0.90, 0.06, 0.40, 15.81, -3.23, 2.99, 29.75, 36.61, -3.58,
6.952519655227661,0.88, 0.02, 0.40, 21.06, 3.36, 5.62, 30.04, 37.18, -1.60,
7.062820672988892,0.93, -0.07, 0.41, 15.44, 8.61, 6.16, 30.73, 37.78, -0.76,
7.171605587005615,0.94, -0.02, 0.37, 3.42, 5.00, -1.95, 30.51, 37.68, 1.04,
7.281489133834839,0.94, -0.04, 0.28, 1.40, 10.74, 5.07, 30.76, 37.49, 0.63,
7.390192747116089,0.95, -0.01, 0.33, -5.31, 10.86, -1.53, 31.27, 36.96, 0.84,
7.500353574752808,0.99, -0.03, 0.31, -0.79, 8.73, 1.53, 31.09, 37.29, 1.33,
7.610377550125122,1.03, -0.01, 0.31, 9.83, 2.81, 3.48, 31.99, 37.89, 3.49,
7.7208452224731445,0.91, 0.07, 0.23, 17.09, 4.88, 14.71, 32.09, 37.74, 3.17,
7.829157114028931,0.71, 0.10, 0.17, 27.22, 8.79, 19.47, 32.60, 37.13, 4.60,
7.938589572906494,1.24, 0.19, 0.31, 20.26, 30.33, 18.37, 33.86, 37.39, 7.20,
8.048613548278809,0.84, 0.06, 0.23, 18.74, -8.73, 6.47, 34.89, 36.02, 9.19,
8.158870697021484,0.95, 0.17, 0.26, 11.90, -4.09, 22.03, 35.38, 35.73, 9.09,
8.268290042877197,0.99, 0.17, 0.15, 28.26, 21.06, 13.98, 36.38, 34.19, 9.35,
8.378180503845215,1.01, 0.08, 0.27, 0.37, -7.20, 2.26, 37.16, 33.24, 11.91,
8.487981081008911,0.89, 0.24, 0.27, -3.23, 7.69, -3.91, 36.72, 33.79, 11.95,
8.597783327102661,0.91, 0.16, 0.25, 18.49, 16.72, 15.99, 36.94, 33.42, 13.34,
8.706563472747803,1.07, 0.27, 0.23, 35.34, 11.35, 8.67, 38.43, 32.73, 15.04,
8.815049171447754,0.88, 0.18, 0.17, 51.27, 4.58, 3.42, 38.37, 31.85, 16.71,
8.925004720687866,1.00, 0.16, 0.19, 34.61, 2.44, -10.80, 39.14, 31.59, 19.51,
9.034685850143433,0.97, 0.12, 0.22, 27.77, -8.42, 2.08, 38.01, 32.23, 19.79,
9.143458366394043,0.93, 0.15, 0.21, 33.33, -9.03, -12.88, 38.42, 32.42, 20.62,
9.253873348236084,0.97, 0.09, 0.24, 44.68, -15.75, -3.17, 38.50, 32.54, 20.83,
9.362717628479004,0.91, -0.04, 0.25, 22.83, -15.81, -9.58, 38.13, 32.60, 21.31,
9.473751306533813,0.79, 0.00, 0.28, 16.05, -6.16, -9.22, 38.18, 33.83, 21.48,
9.583583116531372,1.22, -0.11, 0.35, 27.59, 3.91, 6.16, 38.27, 34.01, 21.45,
9.69310450553894,0.78, -0.07, 0.16, 41.08, -3.66, 22.77, 38.70, 32.64, 22.27,
9.802353620529175,1.05, -0.03, 0.28, 49.87, -11.54, 23.56, 40.33, 28.94, 24.57,
9.912804126739502,0.97, -0.08, 0.33, 29.79, -7.51, 6.41, 40.48, 26.89, 24.07,
10.02125334739685,0.88, -0.07, 0.34, 9.46, 7.32, 5.92, 40.37, 25.70, 25.04,
10.130411863327026,0.95, -0.01, 0.32, -3.54, 19.35, -4.64, 40.06, 25.95, 26.05,
10.241029739379883,0.77, 0.13, 0.25, 15.56, 29.36, 24.48, 39.38, 25.27, 26.89,
10.35124921798706,1.37, 0.08, 0.26, 26.55, 11.60, 18.07, 38.59, 21.84, 30.58,
10.462199926376343,0.88, 0.01, 0.23, 16.91, -12.82, 8.18, 38.44, 20.59, 29.86,
10.572046279907227,0.91, 0.04, 0.26, -0.06, -13.43, 4.52, 39.72, 19.47, 29.33,
10.680297374725342,1.01, 0.13, 0.29, -24.41, -14.65, 0.98, 39.92, 19.01, 29.06,
10.790317296981812,0.93, 0.12, 0.30, -22.03, -16.97, -3.30, 40.27, 18.82, 27.03,
10.900383472442627,0.92, 0.13, 0.35, -21.36, -5.13, -7.32, 40.04, 20.03, 25.83,
11.01179552078247,0.90, 0.08, 0.37, -20.75, -7.93, -4.46, 39.49, 21.12, 25.40,
11.120581865310669,0.91, 0.10, 0.36, -13.49, -5.92, 1.65, 40.16, 21.55, 24.99,
11.230016946792603,0.92, 0.15, 0.38, -10.07, -2.62, 2.32, 39.97, 21.22, 24.91,
11.33984375,0.93, 0.15, 0.36, -0.98, 0.55, 4.33, 40.21, 21.41, 23.97,
11.448523759841919,0.92, 0.16, 0.35, -4.21, 2.81, 1.04, 39.84, 20.90, 23.96,
11.558956861495972,0.93, 0.16, 0.34, -6.04, 2.32, -0.49, 40.33, 21.55, 23.93,
11.668679237365723,0.93, 0.17, 0.36, -9.77, 5.80, -4.46, 40.20, 21.70, 23.80,
11.778793096542358,0.94, 0.17, 0.30, -10.68, 1.16, -3.78, 39.39, 21.89, 24.43,
11.888577699661255,0.94, 0.17, 0.32, -5.31, -0.79, -0.92, 39.65, 22.45, 24.08,
11.999359607696533,0.94, 0.17, 0.30, -1.46, -3.60, -0.67, 39.95, 22.78, 24.01,
12.109119176864624,0.94, 0.19, 0.32, 6.65, -3.05, 0.12, 39.94, 22.66, 23.46,
12.220895051956177,0.92, 0.16, 0.34, 9.52, -4.76, 0.24, 40.08, 21.64, 24.28,
12.33146071434021,0.93, 0.15, 0.34, 9.89, -4.70, 1.10, 39.93, 21.57, 24.13,
12.440094470977783,0.92, 0.13, 0.37, 10.13, -3.60, -0.85, 40.26, 21.37, 24.04,
12.55032753944397,0.94, 0.10, 0.35, 6.04, -0.79, -1.34, 40.06, 21.44, 23.50,
12.661799907684326,0.92, 0.12, 0.36, 0.12, 0.98, -0.98, 40.31, 21.59, 24.23,
12.771483898162842,0.93, 0.12, 0.36, -2.08, 1.89, 0.00, 40.15, 21.98, 25.35,
12.881807327270508,0.91, 0.14, 0.42, 2.87, 4.33, 5.31, 39.95, 21.56, 26.05,
12.990426063537598,0.91, 0.16, 0.35, 11.72, -1.46, 11.47, 39.79, 20.80, 25.24,
13.1005380153656,0.93, 0.16, 0.35, 15.75, -2.50, 15.69, 40.39, 19.35, 25.05,
13.210744142532349,0.93, 0.12, 0.36, 1.34, -3.48, 7.69, 40.77, 18.03, 24.95,
13.319219589233398,0.89, 0.19, 0.33, -11.47, -2.69, -3.36, 41.15, 17.81, 24.80,
13.429669857025146,0.92, 0.23, 0.34, -9.34, 3.78, -8.24, 41.28, 18.49, 25.48,
13.539962530136108,0.91, 0.16, 0.35, 8.73, 8.79, -0.67, 40.73, 18.52, 25.43,
13.649889707565308,0.93, 0.12, 0.31, 6.16, 11.72, 4.27, 40.32, 18.77, 26.45,
13.759114742279053,0.93, 0.19, 0.28, -2.50, 19.47, -0.73, 40.01, 17.71, 27.49,
13.868214845657349,1.00, 0.19, 0.28, 1.53, 13.37, 0.24, 38.92, 18.55, 28.36,
13.978424549102783,0.95, 0.18, 0.23, 4.70, 3.17, 4.76, 38.85, 18.33, 29.60,
14.087655305862427,0.95, 0.20, 0.26, 2.01, -4.94, 10.99, 38.99, 17.18, 29.31,
14.196110010147095,0.93, 0.19, 0.24, -2.69, 3.05, 9.22, 39.16, 16.28, 29.71,
14.306877374649048,0.98, 0.25, 0.24, -5.37, -0.24, 5.00, 39.58, 16.00, 29.60,
14.41619324684143,0.93, 0.24, 0.25, -6.90, -4.46, 5.74, 38.84, 15.98, 29.47,
14.52703070640564,0.93, 0.27, 0.30, -5.13, -2.32, 2.81, 39.11, 15.59, 29.21,
14.636961936950684,0.94, 0.27, 0.24, -9.22, 0.37, 3.66, 39.22, 15.25, 28.56,
14.746649503707886,0.93, 0.31, 0.25, -13.31, 1.77, -3.72, 39.05, 15.49, 29.21,
14.856296062469482,0.93, 0.28, 0.25, -32.65, -6.71, -19.04, 39.28, 17.21, 28.94,
14.966551780700684,0.97, 0.28, 0.23, -44.31, -17.58, -32.47, 39.45, 20.02, 27.91,
15.076006889343262,1.00, 0.25, 0.25, -37.23, -28.14, -26.98, 39.89, 23.52, 25.62,
15.186184167861938,0.88, 0.20, 0.24, -21.91, -26.67, -22.16, 39.65, 26.21, 22.78,
15.296898126602173,0.93, 0.10, 0.33, -18.92, -24.23, -24.54, 39.99, 27.60, 19.54,
15.406537055969238,0.92, 0.11, 0.35, -35.03, -16.97, -27.65, 38.53, 30.91, 17.42,
15.51544737815857,0.92, 0.18, 0.33, -24.29, -7.45, -18.55, 37.60, 32.28, 14.98,
15.62574815750122,0.86, 0.02, 0.35, 7.45, 4.52, -11.11, 37.63, 33.40, 13.76,
15.735197305679321,0.99, -0.04, 0.36, 34.55, 15.26, -7.45, 37.74, 34.35, 15.32,
15.845560312271118,0.92, -0.11, 0.30, 60.42, 10.44, -3.48, 37.87, 35.63, 18.21,
15.955235958099365,0.95, -0.21, 0.28, 54.57, 6.35, 9.34, 38.23, 33.67, 20.59,
16.065669775009155,0.95, -0.27, 0.29, 35.10, -0.61, 10.86, 38.20, 33.35, 23.00,
16.175564527511597,0.95, -0.10, 0.34, 35.58, 6.90, 12.21, 38.31, 31.56, 26.57,
16.28565740585327,0.98, -0.11, 0.23, 49.44, 17.52, 37.54, 39.38, 28.10, 27.86,
16.394493103027344,0.95, -0.05, 0.22, 32.41, 23.32, 13.92, 38.43, 25.27, 29.72,
16.50485134124756,0.96, 0.11, 0.15, 49.74, 12.39, 29.60, 37.96, 22.44, 32.68,
16.61334252357483,1.10, 0.16, 0.14, 49.99, 7.02, 33.14, 38.24, 18.03, 33.83,
16.72316861152649,0.94, 0.07, 0.21, 50.48, -9.46, 13.55, 37.95, 13.44, 34.08,
16.832440853118896,0.96, 0.09, 0.24, 43.21, 3.54, 11.41, 37.94, 9.62, 33.34,
16.94188666343689,1.00, 0.10, 0.26, 22.83, -8.48, 4.21, 38.17, 7.60, 33.47,
17.050228595733643,0.91, 0.08, 0.26, 17.64, -12.39, 0.06, 38.43, 6.73, 31.91,
17.159329414367676,1.05, 0.07, 0.24, 8.61, -17.03, -5.13, 39.16, 6.97, 30.18,
17.26960277557373,0.90, 0.10, 0.29, 20.94, -16.30, -10.99, 39.61, 7.53, 28.91,
17.379700899124146,0.87, -0.08, 0.25, 10.07, -6.29, 10.93, 39.86, 6.79, 28.12,
17.489670038223267,1.01, 0.03, 0.28, -8.54, 3.85, 0.85, 40.58, 6.54, 27.15,
17.599872827529907,1.07, 0.12, 0.31, -3.97, -0.55, 0.24, 40.26, 6.76, 28.49,
17.709227323532104,0.82, 0.03, 0.26, 12.02, 0.61, 1.89, 40.65, 6.52, 28.08,
17.81827425956726,1.07, -0.02, 0.34, 16.30, 0.43, -12.02, 40.17, 6.88, 27.82,
17.927968502044678,0.99, -0.04, 0.30, 5.98, -16.85, -2.50, 40.43, 6.58, 28.25,
18.038774967193604,0.92, -0.01, 0.32, -18.98, 4.39, -1.46, 40.87, 7.40, 26.89,
18.148940563201904,0.97, 0.03, 0.27, -25.94, 9.95, -5.49, 40.38, 7.47, 29.19,
18.2581148147583,0.97, 0.04, 0.27, -22.40, 5.31, -9.52, 39.99, 8.59, 28.63,
18.367071628570557,0.93, 0.04, 0.29, -12.08, -4.64, -5.92, 40.38, 10.46, 30.26,
18.477851152420044,0.95, 0.04, 0.29, -1.40, 0.12, 1.77, 40.23, 10.61, 29.52,
18.58756446838379,0.97, 0.03, 0.27, 4.15, -0.06, 4.21, 40.52, 9.96, 29.19,
18.697536945343018,0.97, 0.04, 0.28, 13.67, 3.11, 7.08, 40.11, 10.23, 29.03,
18.80614399909973,0.95, 0.01, 0.27, 12.57, 6.47, 5.68, 39.79, 9.03, 29.70,
18.916933059692383,0.99, 0.01, 0.29, 3.54, -0.92, 2.26, 39.70, 8.33, 29.93,
19.026845693588257,0.96, 0.01, 0.34, -1.89, 3.78, -0.92, 39.71, 7.93, 31.79,
19.136375904083252,0.99, 0.03, 0.25, -10.31, -2.99, -5.37, 39.76, 9.48, 30.57,
19.24642515182495,0.99, 0.04, 0.27, -8.54, -3.91, -3.91, 39.89, 9.57, 31.42,
19.356828451156616,0.95, 0.03, 0.25, -2.56, -2.44, -4.03, 40.58, 10.00, 30.20,
19.465996026992798,0.97, 0.03, 0.27, 2.87, -0.12, -2.32, 40.17, 10.17, 29.94,
19.575746059417725,0.98, 0.01, 0.26, 3.23, -1.40, -4.21, 40.12, 10.21, 29.52,
19.68514347076416,0.96, -0.01, 0.27, 0.00, -0.98, -2.93, 40.30, 10.96, 30.70,
19.795572519302368,0.97, -0.01, 0.27, -6.65, -2.26, -4.09, 40.04, 11.07, 29.91,
19.905554056167603,0.90, 0.01, 0.21, -13.00, 3.66, -2.99, 40.01, 11.47, 30.65,
20.015939474105835,1.00, 0.00, 0.25, -8.73, 2.81, -1.71, 39.49, 11.96, 30.68,
20.124937534332275,0.94, 0.01, 0.25, 5.43, 1.77, -0.98, 39.45, 11.29, 30.87,
20.234330892562866,1.00, -0.02, 0.22, 4.09, 8.54, -1.83, 39.98, 11.45, 31.35,
20.344911575317383,0.99, -0.01, 0.19, 5.00, 5.13, -3.60, 38.88, 11.69, 32.13,
20.452791213989258,0.98, -0.00, 0.18, -0.61, 11.35, -2.50, 38.81, 11.55, 33.45,
20.563933849334717,0.99, -0.04, 0.15, 2.01, 2.26, -3.78, 38.68, 11.95, 32.74,
20.67214870452881,0.84, 0.02, 0.22, -19.53, 2.81, 0.49, 38.17, 12.02, 33.52,
20.78243327140808,1.12, 0.04, 0.23, -12.08, 35.28, -18.25, 37.17, 12.68, 35.24,
20.892931699752808,1.01, -0.04, 0.08, 12.82, 16.60, -8.73, 36.63, 13.49, 37.29,
21.002788066864014,1.03, -0.08, 0.07, 16.05, -4.64, -3.72, 36.17, 13.29, 37.35,
21.111040592193604,0.99, -0.13, 0.06, 13.00, -13.79, 2.38, 36.32, 12.90, 37.52,
21.22094702720642,1.00, -0.10, 0.12, -5.07, -2.32, -1.59, 37.11, 13.15, 37.00,
21.33149242401123,1.00, -0.10, 0.12, -7.69, 0.92, -2.01, 37.13, 13.32, 35.86,
21.441898822784424,0.98, -0.08, 0.10, -4.15, -0.31, -4.76, 36.50, 13.98, 36.43,
21.551159143447876,1.03, -0.09, 0.11, -12.63, 0.55, 2.01, 36.32, 14.49, 36.46,
21.6613552570343,0.98, -0.08, 0.10, -3.97, -6.71, 2.38, 36.24, 14.45, 36.82,
21.770928621292114,1.00, -0.06, 0.12, 6.90, -4.09, 5.62, 36.71, 14.09, 36.07,
21.88047766685486,0.98, -0.08, 0.14, 3.23, -4.52, 5.00, 36.89, 13.16, 36.60,
21.9899799823761,1.01, -0.03, 0.18, -1.40, -6.47, 7.20, 37.32, 12.71, 35.62,
22.100953102111816,1.01, -0.09, 0.16, -0.12, -2.69, 0.85, 37.30, 12.43, 34.28,
22.21001625061035,0.94, -0.04, 0.17, -4.64, -4.33, -2.44, 38.22, 12.56, 34.40,
22.32021927833557,0.98, -0.05, 0.15, 11.35, -2.56, -2.32, 37.82, 12.49, 35.14,
22.430330276489258,1.00, -0.07, 0.20, 12.70, -6.29, 2.44, 37.96, 11.69, 34.22,
22.54082417488098,0.97, -0.07, 0.15, 6.71, -13.67, 0.61, 38.64, 10.93, 33.58,
22.651174068450928,0.97, -0.09, 0.19, -4.33, -10.62, 1.46, 38.81, 11.04, 33.24,
22.76190733909607,0.97, -0.05, 0.21, -8.54, -4.21, -0.67, 39.10, 10.90, 31.93,
22.87190890312195,0.98, -0.08, 0.23, -12.57, 0.79, 1.04, 38.87, 10.96, 32.73,
22.98095464706421,0.93, -0.01, 0.17, -8.79, -2.75, -1.71, 39.32, 11.84, 31.25,
23.091896772384644,0.99, -0.04, 0.25, -11.84, 6.16, -2.69, 39.20, 11.96, 32.28,
23.200143098831177,0.93, -0.05, 0.21, -27.47, 10.74, 0.92, 38.60, 13.26, 32.03,
23.309438705444336,1.04, -0.01, 0.18, -14.89, 10.31, -2.32, 38.27, 13.92, 33.81,
23.418935537338257,0.98, -0.00, 0.18, -6.16, -1.22, -1.10, 38.46, 14.54, 33.40,
23.528870344161987,1.00, -0.03, 0.17, 2.20, -0.98, -2.20, 38.18, 14.25, 33.59,
23.638290405273438,0.99, -0.03, 0.19, 2.08, -1.04, 1.28, 38.67, 14.38, 32.90,
23.748270988464355,0.99, -0.03, 0.19, -0.18, -1.59, -2.75, 38.32, 13.89, 33.37,
23.85828995704651,0.96, -0.03, 0.19, 3.17, 0.85, -1.77, 38.46, 14.03, 34.33,
23.968472957611084,0.99, -0.04, 0.19, 0.06, -0.06, -0.98, 38.51, 14.23, 34.68,
24.078333854675293,0.97, -0.04, 0.22, 23.01, 14.16, 0.06, 38.51, 13.73, 32.69,
24.187541961669922,1.00, -0.05, 0.14, 19.47, -1.16, -4.70, 38.11, 12.85, 35.66,
24.296968460083008,0.96, -0.05, 0.16, 20.87, 2.75, 2.08, 38.07, 12.32, 34.68,
24.407713174819946,0.98, -0.07, 0.12, 19.17, 7.20, 2.69, 37.65, 10.86, 34.50,
24.51691699028015,1.08, -0.08, 0.13, 0.79, -0.06, -1.59, 37.88, 10.56, 35.71,
24.626911878585815,1.00, -0.12, 0.16, -9.89, -5.92, -0.43, 37.90, 11.38, 35.66,
24.736753225326538,1.02, -0.06, 0.14, -14.83, -10.19, -0.49, 38.33, 11.73, 34.34,
24.846129655838013,0.96, -0.03, 0.13, -18.62, -11.66, 2.38, 39.21, 12.60, 34.11,
24.957908630371094,0.92, 0.00, 0.17, -16.42, -11.54, 5.49, 39.81, 13.37, 32.85,
25.06778383255005,1.08, -0.01, 0.17, -2.08, -7.39, 10.56, 39.29, 13.49, 32.95,
25.178513765335083,0.91, 0.02, 0.26, 1.10, 3.23, 5.62, 39.56, 12.23, 32.43,
25.2883939743042,0.98, 0.02, 0.18, 1.53, -6.29, 1.22, 39.87, 12.21, 33.26,
25.398655891418457,0.96, 0.02, 0.25, 4.46, 3.91, 3.97, 39.67, 11.88, 33.09,
25.507476091384888,1.02, -0.00, 0.18, 2.01, 11.29, 4.15, 39.58, 11.27, 33.97,
25.61626386642456,0.97, 0.01, 0.18, -3.91, 2.87, 4.15, 38.90, 10.72, 33.53,
25.72672200202942,1.00, 0.03, 0.18, -8.18, 5.92, 4.88, 39.50, 11.05, 34.70,
25.83659291267395,0.94, 0.06, 0.17, -14.71, 4.46, -2.44, 38.49, 11.21, 33.40,
25.946436643600464,1.02, -0.01, 0.17, -27.47, 4.33, -3.48, 38.07, 12.82, 35.49,
26.055251121520996,1.00, -0.02, 0.08, -55.79, 4.52, 2.14, 38.65, 14.21, 35.23,
26.165058374404907,1.01, 0.10, 0.10, -44.62, -3.97, 1.83, 38.33, 16.03, 36.11,
26.27431845664978,0.99, 0.11, 0.08, -42.18, -8.73, 1.22, 38.65, 18.07, 34.95,
26.38433027267456,1.04, 0.15, 0.10, -21.30, -11.47, 8.48, 39.36, 18.93, 34.69,
26.494813203811646,1.00, 0.14, 0.11, -2.44, -14.16, 10.56, 40.10, 19.09, 32.41,
26.603687524795532,0.93, 0.18, 0.13, 12.57, -9.46, 5.25, 40.83, 17.68, 30.36,
26.712741374969482,0.93, 0.13, 0.11, 8.48, -8.42, 4.21, 41.24, 17.16, 30.80,
26.822550773620605,1.15, 0.22, 0.15, -21.24, 3.72, -20.63, 41.22, 17.54, 31.19,
26.93291997909546,0.95, 0.09, 0.17, -34.97, -11.35, -20.39, 41.00, 19.86, 30.71,
27.04313564300537,0.88, 0.15, 0.13, -41.63, -12.82, -21.00, 40.99, 23.06, 29.35,
27.153257608413696,1.01, 0.14, 0.18, -52.31, -3.97, -10.80, 40.78, 25.33, 27.72,
27.26269769668579,1.05, 0.07, 0.13, -44.49, -0.43, -19.78, 39.77, 28.56, 25.33,
27.37097954750061,0.87, 0.07, 0.13, -13.24, 3.23, -8.06, 39.48, 30.62, 25.13,
27.48081111907959,1.02, 0.02, 0.16, -3.42, 9.70, -13.98, 39.28, 31.86, 24.89,
27.589466094970703,1.01, 0.00, 0.19, 10.13, 7.14, -3.78, 38.00, 32.76, 27.66,
27.699608087539673,1.01, -0.04, 0.20, 15.81, -0.18, 6.10, 37.93, 32.64, 27.47,
27.809467792510986,0.96, -0.04, 0.18, 6.96, -5.80, 9.83, 38.49, 31.69, 27.47,
27.918286323547363,1.03, -0.04, 0.23, 13.73, -10.68, 16.78, 38.84, 30.43, 27.53,
28.027731895446777,0.99, -0.07, 0.25, 1.40, -18.86, 14.04, 39.97, 28.14, 27.45,
28.13787841796875,1.00, 0.01, 0.28, -31.07, -22.52, -13.92, 40.01, 27.59, 25.20,
28.246997356414795,0.76, 0.15, 0.23, -52.43, -9.70, -2.01, 39.54, 29.54, 22.23,
28.35801100730896,1.13, 0.29, 0.28, -57.74, 2.87, 0.92, 39.43, 29.63, 20.70,
28.467514276504517,0.84, 0.20, 0.23, -34.24, -5.07, -0.73, 38.50, 30.15, 19.82,
28.577070951461792,0.99, 0.20, 0.23, -43.95, -10.68, -4.58, 38.89, 30.42, 17.08,
28.686219930648804,0.97, 0.19, 0.27, -48.10, -8.79, -15.08, 39.14, 30.98, 15.87,
28.795753240585327,0.94, 0.23, 0.23, -55.42, -11.41, -28.56, 38.01, 32.43, 12.33,
28.904796600341797,0.94, 0.18, 0.24, -73.91, -15.44, -28.87, 36.94, 33.06, 9.88,
29.014225244522095,0.91, 0.33, 0.29, -57.19, -16.42, -23.38, 33.87, 34.77, 5.41,
29.12404179573059,0.91, 0.26, 0.26, -15.69, 2.50, -6.47, 33.52, 34.05, 2.54,
29.234384298324585,0.99, 0.20, 0.26, 3.91, 3.60, 2.99, 33.80, 34.45, 3.49,
29.34418535232544,1.00, 0.10, 0.22, 15.63, 2.32, -0.31, 33.84, 34.67, 3.39,
29.454185962677002,0.88, 0.03, 0.27, 13.06, -6.65, -6.41, 34.36, 34.57, 4.80,
29.56456184387207,0.94, -0.02, 0.29, -28.93, 1.16, -27.53, 33.54, 35.94, 3.27,
29.674229621887207,0.84, -0.05, 0.20, -47.18, 10.80, -21.91, 33.28, 36.23, 1.77,
29.783644199371338,1.35, -0.00, 0.27, -35.28, -4.21, -23.19, 31.79, 37.01, 0.45,
29.89277935028076,0.83, 0.02, 0.21, -20.08, -17.15, -2.56, 31.32, 36.49, -1.98,
30.003534078598022,0.99, -0.03, 0.31, -27.53, -1.04, -6.71, 29.93, 35.18, -3.39,
30.11377239227295,0.93, 0.01, 0.28, -23.32, -1.71, -12.08, 29.49, 35.33, -4.85,
30.22372555732727,0.96, 0.03, 0.27, -27.16, 3.17, -9.95, 28.74, 34.91, -5.04,
30.333664417266846,0.91, -0.03, 0.26, -25.88, 9.64, -12.57, 29.24, 33.61, -4.77,
30.443241596221924,1.00, 0.03, 0.25, -12.02, 12.39, -11.23, 28.96, 33.02, -5.62,
30.552241802215576,0.90, 0.01, 0.28, 13.24, 20.02, 15.81, 29.36, 33.95, -5.53,
30.662556171417236,0.93, -0.10, 0.24, 19.35, -3.17, 7.39, 29.74, 34.23, -5.79,
30.770971536636353,0.93, -0.10, 0.26, 5.62, -5.62, 7.75, 30.41, 33.70, -3.87,
30.88090467453003,1.01, -0.02, 0.29, -2.38, 0.79, -0.37, 30.21, 33.79, -3.45,
30.991844415664673,0.94, -0.01, 0.23, 2.14, -6.96, 8.61, 30.31, 33.40, -4.57,
31.101780652999878,1.00, 0.05, 0.23, 8.42, -9.03, 9.28, 29.92, 33.63, -3.71,
31.211830854415894,0.93, 0.11, 0.22, 29.17, -3.48, 20.32, 29.24, 34.19, -3.66,
31.321759462356567,0.97, 0.15, 0.26, 41.02, 6.59, 16.48, 30.80, 33.78, -3.66,
31.430350303649902,1.02, 0.17, 0.27, 34.97, 6.65, 14.28, 31.60, 34.35, 0.50,
31.539207935333252,0.89, 0.17, 0.23, 31.92, 8.73, 9.70, 32.50, 34.69, 2.37,
31.64983606338501,0.95, 0.11, 0.18, 24.60, 5.92, 10.56, 32.79, 35.40, 3.34,
31.759016513824463,0.96, 0.08, 0.22, 10.50, -2.75, -5.13, 33.41, 35.25, 4.25,
31.868252992630005,1.01, 0.08, 0.25, 1.71, 0.00, 0.00, 32.71, 36.49, 4.68,
31.977035999298096,0.93, 0.15, 0.20, 13.67, 12.21, -0.06, 33.12, 35.97, 5.81,
32.086352825164795,1.00, 0.07, 0.20, 10.44, 8.79, 7.08, 33.42, 36.32, 6.92,
32.19471716880798,0.97, 0.09, 0.20, -6.59, 1.95, 0.61, 33.46, 36.28, 6.12,
32.304351568222046,1.01, 0.09, 0.19, -9.09, -4.03, 1.10, 34.07, 36.33, 6.77,
32.41456079483032,0.97, 0.09, 0.20, -6.04, -6.47, -1.22, 33.73, 35.74, 5.48,
32.52299427986145,0.96, 0.10, 0.20, -8.00, -6.59, 1.71, 33.56, 35.73, 5.83,
32.63197994232178,0.95, 0.10, 0.22, -9.22, -3.66, -3.78, 33.18, 35.40, 4.91,
32.742372035980225,0.94, 0.12, 0.22, -1.22, -1.34, -2.32, 32.97, 35.86, 3.87,
32.853490352630615,0.92, 0.12, 0.19, 8.61, 6.96, 3.30, 33.20, 35.06, 4.30,
32.962783098220825,0.98, 0.13, 0.15, 11.96, 10.38, 4.15, 33.57, 35.50, 5.82,
33.07182788848877,0.97, 0.12, 0.20, 12.70, 2.26, -0.98, 33.63, 35.86, 5.75,
33.18179440498352,1.00, 0.10, 0.20, 1.89, 3.23, 3.97, 34.20, 35.51, 6.95,
33.29017233848572,0.98, 0.07, 0.18, -3.78, 4.76, 2.32, 34.02, 35.29, 7.71,
33.40078616142273,0.98, 0.12, 0.15, -11.90, 3.30, 1.53, 34.81, 34.70, 6.74,
33.51025056838989,0.99, 0.14, 0.17, -8.18, 3.72, -0.43, 34.92, 34.69, 6.67,
33.6203351020813,1.01, 0.12, 0.14, -12.70, -4.58, 0.79, 34.86, 33.97, 6.14,
33.7304790019989,0.99, 0.15, 0.17, -12.27, -9.28, -4.46, 34.61, 34.14, 4.20,
33.84073233604431,0.96, 0.16, 0.19, -9.95, -9.70, -1.40, 33.95, 34.07, 3.86,
33.95000219345093,0.96, 0.12, 0.19, -4.76, -10.62, -3.23, 33.61, 34.17, 3.64,
34.060025215148926,0.96, 0.12, 0.22, -3.48, -6.47, -0.06, 33.85, 33.39, 3.15,
34.169163942337036,0.93, 0.13, 0.22, -7.39, 3.23, 1.95, 33.54, 33.84, 3.11,
34.27898120880127,0.98, 0.15, 0.22, -18.62, 5.07, 1.65, 34.01, 33.08, 2.50,
34.38959360122681,1.00, 0.17, 0.21, -8.61, 3.78, -0.55, 33.96, 32.76, 2.54,
34.4997775554657,0.99, 0.16, 0.18, -7.02, 2.75, 2.20, 33.83, 32.97, 2.82,
34.60848903656006,1.00, 0.17, 0.16, 0.00, -4.46, 0.00, 34.36, 32.35, 2.91,
34.71764922142029,0.98, 0.17, 0.22, -7.51, -5.80, -0.24, 34.24, 32.59, 2.55,
34.82742500305176,0.96, 0.19, 0.20, 2.93, -2.81, 0.55, 33.74, 32.08, 2.76,
34.93609833717346,0.97, 0.18, 0.21, 5.43, 0.12, 0.43, 33.92, 32.17, 1.90,
35.045047760009766,0.99, 0.12, 0.19, -3.48, -2.14, -1.53, 33.61, 32.39, 2.06,
35.154706954956055,0.95, 0.15, 0.15, -8.61, -0.43, -4.70, 33.56, 32.52, 2.06,
35.26414132118225,0.95, 0.16, 0.16, -4.21, -0.92, -1.46, 33.41, 32.80, 1.09,
35.37389421463013,0.95, 0.17, 0.17, 1.59, 8.18, 4.03, 34.05, 32.57, 2.44,
35.48347544670105,0.99, 0.17, 0.16, 5.98, 9.22, 1.04, 34.36, 32.28, 2.91,
35.59413266181946,0.99, 0.17, 0.12, 12.76, 13.00, 3.54, 34.57, 32.54, 3.38,
35.7046115398407,1.01, 0.16, 0.14, 7.57, 0.49, -0.31, 35.34, 32.63, 4.35,
35.81322360038757,1.00, 0.17, 0.15, 1.04, -5.19, -4.46, 35.41, 32.57, 4.19,
35.923622846603394,0.96, 0.19, 0.16, -0.12, -5.31, 0.37, 35.18, 32.51, 2.65,
36.03313159942627,0.96, 0.16, 0.17, -2.20, -2.50, 0.67, 34.80, 32.26, 3.59,
36.14331102371216,1.01, 0.11, 0.16, -9.70, -1.22, -1.40, 34.68, 32.81, 2.36,
36.25277853012085,0.97, 0.15, 0.18, -23.25, -6.84, -2.93, 34.11, 31.70, 2.72,
36.36303162574768,0.99, 0.17, 0.18, -25.82, -9.16, -1.53, 34.11, 31.37, 1.46,
36.47343683242798,0.96, 0.18, 0.17, -27.77, -4.88, -1.95, 33.53, 30.79, -0.57,
36.58354377746582,0.97, 0.20, 0.16, -27.16, 0.61, -0.49, 34.06, 29.53, -1.33,
36.69321393966675,0.99, 0.22, 0.13, -15.14, -0.92, -2.14, 34.06, 28.69, -2.26,
36.80346632003784,0.95, 0.26, 0.12, -12.39, -4.46, 0.73, 33.24, 28.00, -2.15,
36.91237783432007,0.97, 0.24, 0.19, -18.19, -11.66, 3.54, 32.70, 27.06, -2.84,
37.02265429496765,0.94, 0.27, 0.17, -29.11, -14.04, -3.17, 32.75, 25.68, -3.52,
37.13268423080444,0.90, 0.30, 0.18, -21.18, -9.09, -12.70, 31.84, 24.73, -6.41,
37.2425696849823,1.08, 0.20, 0.23, -8.30, 15.50, -6.10, 31.30, 24.41, -6.02,
37.350987911224365,0.90, 0.18, 0.10, 0.55, 10.01, -8.24, 31.81, 25.73, -4.97,
37.45980095863342,1.11, 0.15, 0.24, -45.53, -4.39, -6.35, 32.87, 25.20, -4.60,
37.570473194122314,0.97, 0.09, 0.09, -49.56, -7.08, -25.88, 31.37, 24.72, -6.24,
37.68009114265442,0.96, 0.06, 0.12, -62.56, -7.02, -28.26, 31.24, 22.89, -8.22,
37.79029703140259,1.04, 0.04, 0.16, -63.23, -9.40, -27.83, 30.16, 20.97, -9.53,
37.90053749084473,1.03, 0.10, 0.14, -55.36, -13.49, -12.76, 29.37, 17.91, -10.17,
38.00974893569946,0.96, 0.03, 0.17, -36.68, -13.61, -4.52, 28.28, 15.89, -11.08,
38.119712352752686,0.98, 0.09, 0.18, -30.64, -6.29, -10.07, 27.75, 13.78, -11.01,
38.229026794433594,0.98, 0.11, 0.17, 0.55, -6.59, 4.33, 27.48, 12.60, -12.19,
38.338237285614014,1.02, 0.10, 0.21, 24.78, -14.65, 3.42, 26.22, 13.38, -12.45,
38.44943141937256,0.93, 0.05, 0.27, 47.06, -14.59, 11.47, 25.90, 15.19, -13.75,
38.558732748031616,0.90, 0.01, 0.29, 47.24, -11.66, 9.22, 24.93, 18.21, -14.16,
38.668580293655396,0.97, -0.03, 0.33, 37.29, -2.20, 3.54, 24.51, 20.92, -13.83,
38.778613567352295,0.94, -0.04, 0.36, 21.67, 2.75, 1.34, 25.31, 23.28, -13.24,
38.8874249458313,0.91, -0.05, 0.34, 8.48, 1.28, 3.36, 25.12, 23.36, -13.04,
38.99634647369385,0.96, -0.05, 0.34, 3.54, 9.40, 6.35, 25.49, 23.83, -12.17,
39.10548520088196,0.94, -0.01, 0.32, 2.87, 9.40, 13.18, 26.14, 24.29, -10.94,
39.214354038238525,0.94, 0.03, 0.31, 9.34, 4.64, 18.62, 27.17, 23.58, -10.72,
39.324666023254395,1.10, 0.04, 0.38, 5.74, -4.82, 15.26, 27.34, 23.43, -10.84,
39.43330192565918,0.87, 0.02, 0.21, -14.47, 1.95, 13.00, 27.32, 22.80, -10.83,
39.54230761528015,1.00, 0.17, 0.25, -8.73, 12.94, 7.02, 26.78, 22.53, -10.75,
39.65195822715759,0.92, 0.20, 0.17, 3.72, 22.52, 16.85, 28.30, 21.56, -9.95,
39.76137566566467,0.90, 0.32, 0.10, 21.73, 35.95, 29.42, 29.36, 20.89, -8.42,
39.87115263938904,0.91, 0.42, 0.01, 50.17, 39.86, 16.72, 32.31, 21.28, -3.54,
39.981250047683716,0.99, 0.30, 0.04, 74.46, 34.24, -1.10, 34.42, 24.04, -1.56,
40.090869426727295,0.98, 0.31, 0.03, 75.93, 17.94, -1.89, 35.62, 27.49, 1.44,
40.20153069496155,0.93, 0.30, 0.06, 61.22, 14.04, 13.85, 36.02, 29.53, 4.06,
40.3107647895813,0.97, 0.31, 0.01, 66.77, 27.95, 8.85, 36.60, 29.32, 7.75,
40.41910791397095,0.99, 0.30, 0.00, 65.12, 29.54, 7.63, 36.96, 30.03, 11.45,
40.52906847000122,0.96, 0.27, 0.02, 51.21, 21.42, 3.36, 37.63, 30.08, 18.27,
40.63872241973877,0.94, 0.31, 0.02, 35.77, 16.17, -3.05, 37.55, 29.37, 20.09,
40.74884247779846,0.97, 0.27, 0.05, 27.10, 15.14, -8.00, 37.40, 29.61, 22.25,
40.859543800354004,1.00, 0.23, 0.00, 22.16, 12.94, -20.94, 36.13, 31.03, 22.62,
40.9692497253418,0.95, 0.14, -0.02, 8.61, 7.26, -30.52, 35.73, 31.20, 23.84,
41.07972836494446,0.97, 0.13, -0.06, 13.24, 5.98, -34.73, 34.56, 33.69, 24.04,
41.189082622528076,1.02, 0.18, -0.17, 22.09, -0.55, -29.17, 32.48, 35.88, 24.27,
41.299201250076294,1.03, 0.02, -0.14, 57.31, 3.78, -8.24, 31.64, 36.61, 27.11,
41.409651041030884,0.94, -0.03, -0.17, 60.24, 17.40, -11.54, 31.29, 36.23, 29.93,
41.517974853515625,0.99, -0.05, -0.18, 59.57, 2.99, -13.49, 30.03, 34.86, 33.53,
41.62840914726257,0.99, -0.02, -0.12, 61.77, -0.98, -7.20, 29.08, 34.16, 35.01,
41.73815059661865,0.90, -0.05, -0.10, 64.64, -3.48, -3.91, 29.96, 30.77, 36.94,
41.84851551055908,0.93, -0.07, -0.14, 63.11, 1.95, 8.85, 29.46, 27.67, 38.90,
41.95921039581299,0.91, -0.03, -0.20, 83.92, -2.32, 18.86, 30.19, 21.29, 41.83,
42.06909704208374,0.94, -0.01, -0.32, 97.53, -23.62, 29.60, 31.01, 14.26, 40.88,
42.17887258529663,1.28, 0.16, 0.01, 61.89, -44.68, 6.16, 31.95, 9.59, 39.50,
42.28798460960388,1.00, 0.35, 0.22, -6.59, -15.93, -10.74, 32.20, 7.40, 38.39,
42.398427963256836,0.68, 0.28, 0.06, 23.38, -20.57, -10.01, 33.07, 7.65, 37.21,
42.50759410858154,1.08, 0.21, 0.24, 3.72, 1.28, 6.10, 32.92, 6.34, 36.32,
42.61665940284729,0.92, 0.25, 0.15, -5.68, -9.34, -7.26, 32.84, 6.35, 35.34,
42.7256076335907,1.02, 0.17, 0.16, -15.32, -18.43, -12.94, 33.85, 7.36, 34.52,
42.83508801460266,0.97, 0.18, 0.23, -22.22, -20.81, -13.06, 35.12, 9.46, 33.15,
42.94531726837158,0.94, 0.18, 0.23, -18.01, -18.13, -17.88, 36.02, 10.64, 33.03,
43.054508686065674,0.93, 0.20, 0.24, -1.10, -7.75, -12.70, 36.29, 12.99, 31.70,
43.16404724121094,0.94, 0.18, 0.25, 16.97, -1.34, -5.68, 36.91, 13.40, 32.09,
43.27423119544983,1.15, 0.02, 0.32, 3.72, -10.86, -2.44, 37.44, 12.67, 30.54,
43.38328146934509,0.74, 0.01, 0.23, -6.16, -5.07, -17.52, 37.85, 13.99, 29.65,
43.492085695266724,1.14, -0.08, 0.29, -6.77, 3.60, -5.86, 37.19, 14.89, 30.41,
43.60289716720581,0.92, -0.09, 0.33, -13.37, -11.41, -11.17, 38.35, 15.71, 29.33,
43.71353316307068,0.85, -0.01, 0.25, 7.45, -16.72, 19.35, 38.38, 15.28, 28.14,
43.82307171821594,0.93, 0.04, 0.33, 10.01, -20.75, 13.49, 38.60, 13.92, 27.56,
43.93216514587402,0.92, 0.06, 0.39, -7.57, -18.92, 10.68, 38.93, 13.16, 26.27,
44.042495012283325,0.87, 0.11, 0.45, -10.93, -7.69, 4.03, 38.93, 12.30, 24.94,
44.15245532989502,0.86, 0.17, 0.45, -8.61, 0.00, 5.37, 38.81, 12.05, 25.01,
44.26230597496033,0.88, 0.17, 0.44, 3.72, 5.98, 2.99, 39.26, 11.79, 23.75,
44.37172985076904,0.90, 0.16, 0.41, 6.35, 8.67, 1.40, 39.05, 11.25, 25.57,
44.48178005218506,0.92, 0.11, 0.39, 7.32, 5.68, -2.38, 38.85, 11.33, 25.73,
44.59170937538147,0.91, 0.10, 0.41, -0.37, 4.27, -3.78, 38.32, 11.29, 25.35,
44.70193433761597,0.94, 0.10, 0.38, -5.80, -1.16, -4.46, 39.31, 11.95, 26.09,
44.81265139579773,0.92, 0.12, 0.38, 3.72, -2.20, -2.20, 39.12, 12.16, 25.44,
44.921223640441895,0.93, 0.07, 0.39, 3.17, 0.55, -4.21, 38.96, 12.17, 24.30,
45.03040075302124,0.93, 0.08, 0.39, -1.28, 2.01, -4.03, 38.01, 12.89, 25.57,
45.13986372947693,0.91, 0.05, 0.39, -4.88, 2.75, -3.66, 38.49, 12.96, 25.57,
45.24978828430176,0.90, 0.05, 0.36, -9.46, 5.13, -5.31, 39.37, 13.50, 25.55,
45.35988712310791,0.94, 0.04, 0.34, -12.15, 4.39, -4.39, 38.39, 13.85, 25.96,
45.47072672843933,0.95, 0.03, 0.32, -5.43, 3.05, -2.81, 38.62, 14.50, 26.87,
45.58046841621399,0.92, 0.06, 0.35, 0.98, 1.53, 4.70, 38.48, 14.67, 27.86,
45.69026494026184,0.93, 0.05, 0.30, 4.82, 1.77, 5.49, 38.49, 13.88, 27.91,
45.79933524131775,0.93, 0.09, 0.31, 8.85, 7.93, 8.67, 37.99, 13.32, 27.72,
45.90878939628601,0.84, 0.18, 0.23, 14.53, 12.15, 12.70, 37.87, 12.15, 29.25,
46.01803112030029,1.12, 0.18, 0.33, 9.64, -5.13, 17.33, 37.16, 11.16, 29.32,
46.12744355201721,0.83, 0.19, 0.33, -2.01, -17.94, -7.69, 37.24, 10.50, 28.30,
46.23665809631348,0.97, 0.14, 0.35, -5.07, -23.07, -9.09, 37.40, 11.01, 26.59,
46.34672689437866,0.80, 0.16, 0.34, -1.16, -9.16, -10.31, 38.33, 11.57, 26.53,
46.45640993118286,0.82, -0.06, 0.35, 8.91, 7.63, -6.71, 38.70, 12.06, 25.35,
46.566158056259155,1.17, 0.09, 0.45, 6.04, -12.76, -1.71, 38.37, 12.99, 27.39,
46.67535948753357,0.82, 0.05, 0.36, 6.10, -7.51, 8.54, 38.38, 12.51, 27.28,
46.7843599319458,0.96, 0.03, 0.37, 4.15, -0.79, 0.37, 38.18, 11.98, 26.66,
46.89376878738403,0.87, -0.02, 0.37, -10.13, -5.00, 2.08, 38.13, 11.93, 26.84,
47.00398063659668,0.96, 0.10, 0.35, -17.70, -3.05, -5.62, 38.61, 12.35, 26.68,
47.11469769477844,0.95, 0.06, 0.37, -9.95, 0.49, 1.28, 38.39, 12.70, 27.51,
47.22456669807434,0.89, 0.10, 0.37, -7.69, 0.49, -0.92, 38.60, 12.56, 26.82,
47.33331823348999,0.93, 0.10, 0.36, -9.09, 8.06, -0.79, 38.20, 12.85, 27.12,
47.442041873931885,0.94, 0.11, 0.34, -9.58, 4.09, -3.42, 38.26, 13.20, 27.72,
47.552446126937866,0.94, 0.11, 0.33, 5.74, 5.62, -2.20, 38.55, 13.32, 28.28,
47.66109251976013,0.93, 0.09, 0.32, 1.34, 2.44, -3.72, 38.32, 13.48, 27.20,
47.771589279174805,0.95, 0.10, 0.32, 2.38, 4.21, 0.79, 37.85, 14.07, 29.14,
47.87988471984863,0.95, 0.06, 0.33, 1.95, -0.73, -4.46, 37.90, 13.68, 28.08,
47.98912811279297,0.94, 0.12, 0.36, 2.14, -1.46, -3.23, 37.34, 14.54, 29.00,
48.09837770462036,0.95, 0.07, 0.32, 7.51, -4.09, -4.33, 37.54, 14.06, 27.82,
48.20824122428894,0.95, 0.06, 0.34, 3.23, -6.59, -5.31, 37.85, 14.43, 28.39,
48.31869149208069,0.94, 0.01, 0.36, 2.20, -6.35, -4.33, 38.49, 14.21, 27.65,
48.42830848693848,0.92, -0.01, 0.38, -7.45, -4.94, -5.92, 38.55, 14.69, 27.60,
48.538352727890015,0.95, 0.05, 0.39, -9.40, -5.07, 3.85, 38.34, 15.37, 27.11,
48.647319316864014,0.92, 0.07, 0.38, -5.68, -3.23, 3.85, 37.95, 14.86, 25.54,
48.757688999176025,0.89, 0.07, 0.39, -1.77, -4.21, 3.42, 38.42, 14.58, 26.22,
48.86809587478638,0.91, 0.09, 0.37, 3.78, -2.20, 2.81, 38.71, 14.40, 25.45,
48.97786068916321,0.93, 0.08, 0.38, 11.78, 2.62, 3.30, 38.27, 14.98, 25.04,
49.08855128288269,0.92, 0.05, 0.40, 12.57, 1.04, 4.21, 38.92, 14.38, 25.94,
49.19670629501343,0.92, 0.04, 0.39, 7.26, 1.04, 3.48, 38.78, 12.88, 26.53,
49.30634522438049,0.92, 0.05, 0.40, 4.09, -0.98, 0.79, 38.83, 13.13, 25.82,
49.41617202758789,0.91, 0.07, 0.44, 1.28, -0.06, -0.61, 38.54, 13.01, 26.31,
49.52497100830078,0.91, 0.06, 0.38, 1.16, 3.42, -1.53, 38.95, 12.89, 26.20,
49.634562253952026,0.94, 0.05, 0.37, -1.10, 2.44, -2.75, 38.04, 12.45, 26.54,
49.742276430130005,0.92, 0.06, 0.38, -2.20, -0.67, -2.87, 37.90, 12.52, 26.59,
49.85337257385254,0.93, 0.04, 0.38, -0.85, -1.28, -1.28, 37.85, 12.78, 26.43,
49.96262454986572,0.94, 0.03, 0.39, -1.89, -0.67, -0.98, 38.79, 13.34, 27.06,
50.07267236709595,0.92, 0.06, 0.38, -5.25, 0.92, -0.73, 38.90, 13.35, 27.09,
50.182305574417114,0.92, 0.06, 0.38, -1.89, -0.61, -1.10, 38.62, 13.83, 27.03,
50.292237281799316,0.91, 0.06, 0.37, -0.18, -0.49, -1.04, 38.64, 13.40, 25.98,
50.401336908340454,0.92, 0.06, 0.35, 0.49, -0.31, -2.38, 38.98, 13.62, 26.79,
50.510746240615845,0.92, 0.06, 0.36, 2.62, 0.00, -1.59, 38.65, 13.31, 27.16,
50.61943507194519,0.93, 0.02, 0.38, 1.59, 1.59, 0.98, 38.37, 13.60, 27.81,
50.730393171310425,0.93, 0.04, 0.37, 0.43, -0.61, -1.10, 38.06, 13.05, 27.29,
50.84045720100403,0.93, 0.04, 0.42, -1.65, 0.49, -1.10, 38.32, 13.77, 27.05,
50.950254678726196,0.94, 0.04, 0.36, -1.22, -0.37, -2.26, 38.98, 13.56, 26.70,
51.05941605567932,0.94, 0.04, 0.35, -2.01, 0.24, -0.43, 38.71, 14.07, 27.36,
51.16799283027649,0.95, 0.04, 0.35, -2.20, -0.92, 0.06, 39.21, 13.73, 27.75,
51.276721477508545,0.94, 0.04, 0.36, -2.38, -1.22, 0.18, 38.89, 13.67, 27.77,
51.38752317428589,0.94, 0.04, 0.37, 0.49, -1.83, 0.43, 38.43, 13.73, 27.81,
51.49650812149048,0.93, 0.04, 0.36, 0.37, -1.46, -0.79, 38.88, 13.49, 27.82,
51.60471963882446,0.93, 0.04, 0.37, 0.61, -3.78, -0.43, 38.28, 13.65, 27.01,
51.713736057281494,0.92, 0.05, 0.37, 0.92, -2.93, 0.67, 38.66, 13.20, 27.84,
51.82307171821594,0.93, 0.06, 0.36, 0.00, -0.31, 1.04, 38.78, 13.92, 26.20,
51.93267488479614,0.91, 0.06, 0.37, 1.46, -2.44, -0.06, 38.98, 13.56, 25.59,
52.041961669921875,0.92, 0.05, 0.38, 0.37, -1.83, 0.37, 39.06, 13.65, 26.11,
52.1526734828949,0.92, 0.05, 0.38, 0.43, -0.98, -0.24, 38.57, 13.64, 26.04,
52.2616491317749,0.91, 0.05, 0.36, 1.40, 1.53, 0.37, 39.27, 13.70, 27.00,
52.37362861633301,0.93, 0.04, 0.39, 0.31, 0.24, -1.04, 38.99, 13.44, 25.92,
52.484517097473145,0.91, 0.05, 0.38, -3.97, 1.04, -1.71, 38.17, 13.61, 26.98,
52.59387254714966,0.94, 0.06, 0.37, -5.68, 2.75, -1.95, 38.76, 13.55, 26.79,
52.70565128326416,0.91, 0.06, 0.36, -10.13, 6.53, -2.38, 38.64, 13.75, 27.25,
52.81546497344971,0.94, 0.06, 0.33, -12.82, 8.97, -4.76, 37.87, 13.85, 28.87,
52.92570185661316,0.97, 0.03, 0.31, -14.40, 3.30, -4.39, 38.07, 15.11, 27.55,
53.036285638809204,0.95, 0.03, 0.32, -12.70, 1.83, -2.69, 37.76, 15.65, 29.43,
53.14600896835327,0.96, 0.04, 0.31, -10.74, -0.24, -0.24, 37.72, 15.67, 28.87,
53.256606101989746,0.95, 0.00, 0.34, -16.42, -1.40, -1.65, 37.68, 16.04, 29.02,
53.36653661727905,1.03, 0.05, 0.29, -22.22, -0.18, -3.05, 37.32, 16.59, 28.19,
53.477243423461914,0.79, 0.12, 0.22, -17.09, -4.39, 6.65, 36.90, 17.08, 29.13,
53.586854219436646,0.86, 0.22, 0.25, 0.43, 5.37, 13.43, 37.21, 16.76, 30.03,
53.69639277458191,1.08, 0.16, 0.36, 2.01, -0.49, 12.88, 36.69, 15.45, 29.65,
53.806267499923706,0.91, 0.17, 0.29, 0.18, -7.93, -1.65, 36.12, 15.00, 29.19,
53.91607332229614,0.91, 0.21, 0.31, 6.10, -2.56, 6.10, 36.72, 14.99, 27.89,
54.026313066482544,0.94, 0.17, 0.30, 9.95, 7.08, 6.96, 36.58, 13.39, 28.49,
54.13547492027283,0.97, 0.18, 0.31, 3.05, 1.59, -0.49, 36.68, 13.20, 29.37,
54.24477672576904,0.90, 0.18, 0.27, 2.93, -3.48, -0.37, 36.87, 13.22, 29.82,
54.353774070739746,0.90, 0.17, 0.30, -3.11, -0.24, -2.32, 36.00, 13.34, 29.87,
54.46338891983032,0.96, 0.19, 0.31, -2.20, -0.37, 1.83, 36.72, 13.48, 28.61,
54.57136607170105,0.91, 0.20, 0.30, -3.97, -0.98, -1.10, 36.66, 13.43, 29.49,
54.68198013305664,0.94, 0.18, 0.35, -0.79, 2.14, 0.61, 36.15, 13.56, 29.25,
54.79353880882263,0.96, 0.21, 0.29, 2.01, 2.44, 0.61, 36.83, 12.87, 29.28,
54.90301561355591,0.91, 0.24, 0.29, 14.10, 6.53, 3.48, 36.33, 11.91, 29.10,
55.012099742889404,0.92, 0.18, 0.32, 9.16, -1.71, -2.14, 36.36, 11.91, 30.05,
55.121668338775635,0.89, 0.19, 0.30, 4.52, -2.08, -10.74, 36.43, 12.50, 29.76,
55.23189568519592,0.98, 0.15, 0.33, 2.01, -6.16, -5.62, 36.46, 13.06, 30.10,
55.34091639518738,0.91, 0.12, 0.28, -10.80, -6.96, -10.68, 37.28, 13.49, 28.96,
55.45129346847534,0.85, 0.04, 0.27, -24.23, -5.37, -14.95, 37.66, 14.83, 28.12,
55.55989456176758,1.07, 0.07, 0.29, -40.89, 6.90, -29.36, 37.88, 17.36, 29.13,
55.66932702064514,0.97, 0.06, 0.30, -34.48, -1.34, -10.86, 37.13, 21.09, 28.38,
55.7788450717926,0.88, 0.02, 0.27, -16.78, -1.40, -8.85, 36.56, 22.44, 27.73,
55.888400077819824,1.00, 0.02, 0.28, -8.24, 2.93, -12.88, 37.17, 23.71, 27.49,
55.99912881851196,0.94, 0.09, 0.25, -7.75, -2.20, -4.64, 36.94, 24.79, 28.20,
56.10922336578369,0.97, 0.03, 0.22, 2.44, -2.08, 5.62, 36.68, 24.94, 27.76,
56.219077587127686,1.02, 0.03, 0.29, 9.03, 3.23, -2.87, 36.80, 24.27, 27.03,
56.32782316207886,0.96, 0.03, 0.26, 5.31, -0.79, -2.20, 36.54, 23.88, 28.30,
56.43851327896118,0.96, 0.03, 0.27, 6.65, -3.48, -0.24, 36.44, 24.37, 28.05,
56.546555042266846,0.95, 0.00, 0.28, 2.75, -4.33, -1.59, 36.51, 24.22, 28.08,
56.656216859817505,0.95, 0.02, 0.29, 1.77, -3.11, -3.17, 37.26, 24.30, 27.69,
56.76475954055786,0.95, 0.03, 0.30, 1.77, -2.75, -1.40, 37.01, 24.35, 27.73,
56.87404465675354,0.95, 0.01, 0.30, 2.56, -1.10, -0.12, 36.87, 23.82, 27.64,
56.98267102241516,0.96, 0.02, 0.30, 3.05, -0.92, -0.61, 37.18, 24.13, 25.81,
57.09232449531555,0.94, 0.01, 0.33, -0.67, -0.24, 1.34, 37.11, 23.74, 27.65,
57.200790882110596,0.97, 0.00, 0.30, -0.49, -0.73, 0.06, 37.55, 24.32, 27.15,
57.30960273742676,0.96, 0.02, 0.30, -1.40, -0.67, -0.61, 37.48, 24.08, 27.87,
57.41948890686035,0.95, 0.02, 0.30, 0.12, -1.04, -1.04, 37.73, 23.94, 25.84,
57.52992296218872,0.95, 0.02, 0.30, 0.92, -0.61, -0.18, 37.56, 24.07, 27.77,
57.63995027542114,0.97, 0.01, 0.31, 1.22, 1.59, -0.73, 37.51, 23.97, 26.28,
57.75037980079651,0.95, 0.01, 0.31, 1.28, -0.18, -0.37, 36.89, 24.40, 27.60,
57.860352993011475,0.96, 0.00, 0.31, -0.61, -1.53, -0.73, 37.74, 24.11, 27.33,
57.970017433166504,0.95, 0.01, 0.30, -1.95, -2.93, -1.16, 36.84, 24.11, 27.16,
58.079726696014404,0.95, 0.02, 0.30, 0.85, -1.95, -0.12, 37.21, 23.93, 26.84,
58.19050574302673,0.95, 0.00, 0.32, -1.59, -2.26, -2.44, 37.35, 23.75, 25.88,
58.300527572631836,0.95, -0.00, 0.31, -0.85, -3.36, -1.59, 37.59, 24.34, 26.56,
58.41040110588074,0.95, -0.00, 0.32, -0.98, -2.38, -1.89, 37.41, 24.19, 26.46,
58.51969313621521,0.94, -0.02, 0.35, -3.36, -1.83, -2.08, 37.17, 24.35, 26.83,
58.630443811416626,0.96, -0.01, 0.33, -1.40, -4.21, -2.62, 37.72, 25.09, 27.00,
58.741623640060425,0.96, -0.01, 0.33, -2.14, -2.50, -0.18, 37.26, 24.73, 25.16,
58.85120964050293,0.93, -0.00, 0.34, -1.04, -4.76, -0.67, 37.72, 24.83, 25.12,
58.96098351478577,0.93, -0.01, 0.34, 0.12, -4.46, -0.31, 37.50, 25.16, 25.98,
59.07260012626648,0.95, -0.02, 0.36, 0.18, -3.05, -0.43, 37.34, 24.10, 25.07,
59.18179249763489,0.93, -0.00, 0.36, -0.67, -2.26, -0.18, 37.70, 24.71, 25.39,
59.29216384887695,0.93, -0.01, 0.36, -0.49, -1.83, -0.55, 38.11, 24.69, 24.87,
59.401607513427734,0.92, -0.01, 0.37, -0.06, -1.34, -0.43, 37.79, 24.93, 24.04,
59.51245617866516,0.95, 0.00, 0.35, -0.85, 0.00, -0.85, 37.59, 23.97, 24.54,
59.620755434036255,0.92, 0.00, 0.35, -0.92, -1.34, -0.67, 37.46, 24.76, 25.05,
59.72994422912598,0.93, -0.01, 0.37, -0.67, -1.53, -0.55, 37.08, 24.96, 25.11,
59.84045362472534,0.93, -0.00, 0.36, -0.12, -0.24, -0.31, 37.18, 24.46, 24.85,
59.9501256942749,0.93, -0.00, 0.38, 0.37, -0.06, -0.49, 36.79, 24.78, 26.29,
60.06012463569641,0.93, -0.01, 0.37, 1.53, 0.67, -0.73, 37.52, 24.60, 24.90,
60.171128034591675,0.93, -0.01, 0.36, 0.98, 2.26, -0.24, 38.40, 25.26, 25.77,
60.281996965408325,0.94, -0.02, 0.36, 0.43, 0.18, -0.85, 36.83, 25.21, 26.06,
60.39163875579834,0.94, -0.02, 0.35, -2.32, -0.12, 0.92, 37.44, 24.73, 26.09,
60.50163912773132,0.93, -0.01, 0.37, -2.69, -0.85, -0.18, 37.37, 24.51, 25.98,
60.610840797424316,0.94, -0.00, 0.34, -0.43, -0.85, -0.98, 36.87, 25.28, 25.45,
60.72149133682251,0.94, -0.01, 0.35, 1.34, -0.85, 0.79, 36.85, 25.22, 26.62,
60.83109641075134,0.93, 0.00, 0.35, 1.22, -0.67, -0.49, 37.19, 24.35, 25.94,
60.94100999832153,0.94, -0.00, 0.35, 1.65, -0.49, 0.06, 37.63, 24.33, 24.27,
61.05110049247742,0.94, -0.00, 0.33, 0.49, 1.34, 0.73, 37.59, 25.01, 25.28,
61.161141872406006,0.94, -0.01, 0.35, -0.18, 0.18, -0.06, 37.59, 24.55, 26.39,
61.27245473861694,0.95, -0.00, 0.34, -1.04, -0.85, 1.46, 37.40, 24.38, 27.27,
61.381694078445435,0.94, 0.01, 0.35, 0.49, -2.08, 0.12, 37.26, 24.02, 27.17,
61.49240756034851,0.94, -0.00, 0.36, 0.55, -2.50, 0.49, 37.13, 24.00, 26.06,
61.60208487510681,0.94, 0.00, 0.37, 0.85, -1.59, -1.10, 37.18, 23.74, 26.10,
61.712069511413574,0.93, 0.00, 0.36, 0.92, -1.10, -0.79, 37.56, 23.96, 25.65,
61.82445573806763,0.93, -0.00, 0.36, 0.24, -0.98, -0.85, 37.27, 24.37, 26.27,
61.934595346450806,0.93, -0.01, 0.36, 0.37, -0.37, -0.85, 37.33, 23.39, 26.07,
62.04521894454956,0.92, 0.01, 0.39, -1.04, 0.06, -0.49, 37.78, 23.77, 25.84,
62.15472364425659,0.92, -0.01, 0.35, 0.79, -2.20, -1.10, 37.60, 24.26, 26.12,
62.26472854614258,0.93, -0.02, 0.35, 0.73, -1.34, -0.24, 37.89, 24.30, 27.36,
62.37506651878357,0.93, -0.01, 0.36, 1.46, -1.59, 0.06, 37.57, 23.72, 25.32,
62.48533248901367,0.93, -0.01, 0.36, 1.53, -0.85, 1.28, 36.80, 24.15, 25.71,
62.59511852264404,0.94, -0.02, 0.38, 0.06, 0.79, 1.22, 37.73, 23.72, 26.35,
62.70346236228943,0.92, -0.00, 0.36, -1.89, 2.32, 1.28, 37.29, 23.73, 26.92,
62.81344985961914,0.94, -0.00, 0.36, -2.93, 1.34, 0.92, 37.60, 23.96, 25.95,
62.923707485198975,0.94, 0.01, 0.34, -1.28, 2.20, 2.20, 37.66, 23.44, 26.55,
63.03326082229614,0.94, 0.01, 0.39, -2.99, 1.65, 1.16, 37.00, 23.72, 26.42,
63.142828702926636,0.95, 0.01, 0.33, 0.06, 0.55, -0.12, 37.40, 22.85, 26.07,
63.25278091430664,0.94, 0.02, 0.33, 1.95, 0.31, 0.49, 37.79, 23.33, 26.33,
63.361655950546265,0.94, 0.01, 0.34, 0.49, -0.12, -0.55, 37.83, 23.25, 26.07,
63.47351956367493,0.95, 0.01, 0.35, 0.00, -0.06, -0.49, 37.62, 23.71, 26.99,
63.58311939239502,0.94, 0.01, 0.33, -0.73, -0.73, -0.61, 37.66, 23.16, 26.37,
63.69286632537842,0.94, 0.01, 0.33, -2.38, -0.49, -0.31, 37.71, 23.18, 26.60,
63.8040726184845,0.95, 0.01, 0.34, -1.40, -1.71, -0.67, 38.10, 22.73, 26.86,
63.914512157440186,0.94, 0.02, 0.34, -2.14, -2.20, -1.04, 37.73, 22.99, 25.77,
64.02367091178894,0.92, 0.00, 0.35, -0.73, -0.67, -1.04, 37.33, 22.95, 26.59,
64.13461399078369,0.95, 0.01, 0.35, -1.59, -2.56, -2.32, 37.55, 23.12, 25.23,
64.24650716781616,0.94, 0.01, 0.35, -1.83, -1.77, -1.16, 37.29, 24.05, 26.00,
64.35626363754272,0.93, 0.01, 0.35, -1.89, -2.32, -2.26, 38.12, 23.22, 24.77,
64.46674752235413,0.93, 0.01, 0.35, -1.16, -1.34, -1.71, 37.60, 23.28, 26.23,
64.57682371139526,0.94, -0.00, 0.35, 1.46, -0.85, -0.12, 38.13, 23.72, 25.28,
64.68795871734619,0.93, 0.01, 0.35, 1.28, -2.08, -0.12, 37.68, 24.12, 25.92,
64.79780888557434,0.93, -0.01, 0.35, -1.40, 0.06, -0.37, 38.20, 23.78, 26.57,
64.90884613990784,0.93, 0.01, 0.35, -0.18, -1.65, -0.24, 37.84, 24.05, 25.46,
65.01884579658508,0.91, -0.00, 0.37, 1.40, 0.18, -0.12, 37.62, 23.93, 25.92,
65.13029766082764,0.95, -0.00, 0.35, 0.61, -0.24, -0.61, 37.50, 23.75, 26.75,
65.23992681503296,0.93, 0.00, 0.36, 0.06, 0.92, 0.37, 37.89, 23.35, 25.59,
65.3503315448761,0.94, 0.01, 0.36, -1.34, 0.24, 0.06, 37.59, 23.22, 26.39,
65.45931816101074,0.93, 0.00, 0.36, -0.73, -0.49, 0.98, 37.68, 23.68, 26.21,
65.56925415992737,0.94, 0.02, 0.33, -2.69, 0.85, 0.24, 37.76, 23.35, 25.56,
65.6805682182312,0.94, 0.01, 0.35, -1.59, -0.18, 0.12, 37.55, 23.50, 25.61,
65.7900390625,0.94, 0.01, 0.35, -1.10, 0.37, -0.12, 37.93, 23.57, 26.32,
65.90032768249512,0.93, 0.01, 0.35, -2.44, 1.10, -0.31, 37.24, 23.93, 25.54,
66.01017713546753,0.94, 0.01, 0.35, 0.12, 0.98, 0.49, 37.24, 23.32, 26.42,
66.11932587623596,0.93, 0.03, 0.34, 1.53, 2.20, 0.73, 37.17, 23.47, 26.07,
66.22921657562256,0.94, 0.02, 0.35, -0.06, 1.28, 0.37, 37.38, 23.24, 26.37,
66.33737564086914,0.94, 0.02, 0.34, -0.31, -0.49, 1.83, 36.89, 22.64, 26.59,
66.44878721237183,0.94, 0.02, 0.34, 0.06, 0.00, 1.16, 37.32, 23.00, 25.48,
66.55821681022644,0.94, 0.01, 0.35, -0.43, -0.92, 0.55, 37.84, 23.27, 26.04,
66.66828441619873,0.94, 0.02, 0.36, -0.49, -0.55, 0.79, 37.22, 22.75, 25.04,
66.77804756164551,0.93, 0.03, 0.34, -0.43, 1.40, 2.56, 37.50, 22.36, 26.97,
66.88769221305847,0.96, 0.03, 0.35, 1.04, 2.75, 2.75, 37.19, 22.50, 26.44,
66.99816870689392,0.95, 0.05, 0.34, 1.22, 2.69, 6.16, 37.60, 22.09, 26.07,
67.10695695877075,0.90, 0.03, 0.29, -5.49, 4.33, 7.20, 37.54, 21.45, 26.10,
67.21748304367065,0.94, 0.07, 0.29, -8.79, 5.13, 3.05, 37.02, 20.98, 27.93,
67.32682013511658,0.97, 0.09, 0.29, -8.36, 3.91, 2.75, 36.91, 21.15, 27.82,
67.43750858306885,0.97, 0.12, 0.28, -8.48, -0.61, 1.22, 37.12, 21.04, 27.95,
67.54689264297485,0.94, 0.12, 0.26, -6.16, -3.91, 1.22, 36.96, 20.75, 27.27,
67.6573588848114,0.96, 0.10, 0.26, -0.85, -1.04, 0.06, 36.84, 21.17, 27.66,
67.76628136634827,0.96, 0.11, 0.25, -3.42, 3.60, 1.77, 37.44, 20.26, 26.22,
67.87475156784058,0.95, 0.12, 0.27, -8.85, -2.14, 1.65, 37.08, 20.50, 27.28,
67.98431348800659,0.91, 0.14, 0.28, -6.90, -0.73, 1.34, 36.88, 20.57, 27.28,
68.09277296066284,0.96, 0.21, 0.27, -1.65, 9.70, 2.44, 36.51, 20.68, 26.35,
68.20244145393372,0.99, 0.21, 0.27, 4.82, 11.60, 3.36, 36.11, 20.23, 28.88,
68.31269478797913,0.96, 0.18, 0.21, 1.04, 2.56, -2.69, 36.32, 20.26, 27.88,
68.42444777488708,0.97, 0.20, 0.22, -5.49, -8.24, -5.92, 36.28, 20.28, 28.23,
68.535560131073,1.04, 0.22, 0.29, -8.00, -9.16, -7.20, 36.19, 21.23, 28.28,
68.64543795585632,0.91, 0.13, 0.29, -0.61, -0.37, -11.29, 36.39, 21.77, 26.92,
68.75630235671997,0.97, 0.06, 0.24, -5.74, 4.09, -10.74, 36.25, 22.51, 26.83,
68.8675262928009,0.95, 0.04, 0.26, -13.61, 11.11, -15.01, 35.60, 24.41, 28.44,
68.97816109657288,1.00, -0.04, 0.17, -18.31, 1.89, -7.45, 35.01, 26.20, 27.29,
69.08824563026428,1.03, -0.03, 0.21, -19.96, -10.07, -2.56, 35.42, 26.62, 27.23,
69.20038104057312,0.94, -0.03, 0.24, -13.24, -14.04, 5.49, 35.64, 26.67, 26.48,
69.31023025512695,0.97, 0.03, 0.28, -9.64, -9.16, 4.88, 35.73, 26.99, 25.15,
69.41961359977722,0.84, 0.21, 0.27, -17.82, -10.44, 8.48, 36.25, 26.27, 24.57,
69.53033232688904,1.01, 0.18, 0.31, -9.34, -0.67, 10.86, 36.46, 25.60, 24.18,
69.64047718048096,0.93, 0.17, 0.38, 11.41, -5.98, 1.40, 37.00, 25.49, 22.30,
69.74989938735962,0.90, 0.15, 0.30, 7.45, -3.97, 1.04, 36.77, 25.00, 24.76,
69.86002659797668,0.95, 0.16, 0.36, 1.53, -2.50, 3.30, 36.30, 24.33, 23.69,
69.97015881538391,0.92, 0.15, 0.35, 0.31, -2.26, -0.31, 36.84, 24.07, 23.99,
70.0797369480133,0.92, 0.16, 0.35, 2.99, -2.69, -0.55, 37.34, 24.12, 22.25,
70.19005990028381,0.92, 0.15, 0.35, 2.87, -1.71, -1.77, 37.05, 23.82, 23.93,
70.30011367797852,0.92, 0.14, 0.36, 1.10, -1.71, -3.36, 36.80, 24.30, 22.97,
70.40986561775208,0.93, 0.14, 0.34, 1.34, -0.18, -0.49, 36.93, 24.29, 23.18,
70.52086448669434,0.93, 0.13, 0.34, 0.37, -0.24, -0.12, 36.33, 23.56, 22.86,
70.63152146339417,0.93, 0.12, 0.34, -0.73, -0.43, -0.06, 36.57, 24.68, 22.92,
70.74073958396912,0.94, 0.13, 0.33, -1.16, -1.53, -0.79, 36.72, 24.19, 22.91,
70.85236597061157,0.93, 0.14, 0.34, -3.42, -0.92, -0.67, 36.76, 24.55, 23.46,
70.9618628025055,0.93, 0.12, 0.33, -7.51, -5.25, -0.85, 36.71, 23.94, 23.28,
71.07212018966675,0.90, 0.17, 0.39, 5.55, -3.66, -4.33, 37.12, 24.71, 22.66,
71.18236708641052,0.93, 0.13, 0.35, 5.13, 7.87, -2.08, 36.94, 24.62, 23.02,
71.29224562644958,0.92, 0.11, 0.32, 4.88, 1.89, -2.44, 36.83, 24.40, 24.29,
71.40290427207947,0.93, 0.10, 0.33, 4.39, 3.48, -15.50, 36.68, 25.38, 22.51,
71.51354742050171,0.94, 0.10, 0.32, 4.82, 1.34, 1.46, 36.13, 24.65, 25.05,
71.62253737449646,0.93, 0.09, 0.30, 2.01, -0.24, -0.24, 36.46, 24.61, 24.24,
71.73287057876587,0.94, 0.12, 0.33, -2.01, 2.50, -0.79, 36.24, 24.54, 23.82,
71.84268641471863,0.94, 0.11, 0.33, -0.85, 0.06, 0.18, 36.57, 24.46, 23.96,
71.95262026786804,0.93, 0.12, 0.32, -2.69, 0.49, -0.61, 36.67, 24.41, 25.00,
72.06311082839966,0.95, 0.12, 0.32, -1.77, 3.72, -0.43, 36.58, 25.04, 24.08,
72.17212247848511,0.95, 0.12, 0.31, -5.86, 7.14, -0.55, 36.87, 24.32, 25.45,
72.28238272666931,0.97, 0.10, 0.30, -4.88, 4.39, -0.37, 35.99, 24.41, 26.53,
72.39272999763489,0.95, 0.12, 0.28, -5.13, 0.98, 0.43, 35.34, 24.83, 25.20,
72.5030906200409,0.94, 0.13, 0.28, -3.97, 1.83, -0.61, 35.52, 25.15, 25.99,
72.61451816558838,0.96, 0.13, 0.27, -0.98, 1.89, -0.79, 35.93, 25.06, 26.03,
72.72501802444458,0.93, 0.18, 0.27, 6.41, 0.49, -2.99, 35.99, 24.65, 24.89,
72.83583617210388,0.97, 0.08, 0.28, 0.37, 0.06, -2.99, 36.01, 24.99, 25.98,
72.94611287117004,0.97, 0.12, 0.26, -1.40, -6.53, -2.26, 36.02, 24.78, 25.89,
73.05691766738892,0.94, 0.12, 0.29, -0.73, -8.24, -5.19, 35.89, 25.79, 25.45,
73.16707468032837,0.94, 0.10, 0.30, 2.75, -5.92, -3.85, 35.85, 25.15, 25.26,
73.27697825431824,0.96, 0.08, 0.31, 6.16, -3.66, -3.23, 35.79, 25.93, 24.05,
73.38671588897705,0.93, 0.11, 0.33, 15.93, 0.98, -0.43, 35.99, 25.85, 24.08,
73.4967622756958,0.90, 0.10, 0.32, 28.20, 10.25, 9.40, 36.13, 25.24, 25.59,
73.60655307769775,0.94, 0.06, 0.29, 39.73, 27.16, 12.82, 35.95, 23.13, 28.56,
73.71839761734009,1.02, 0.02, 0.23, 20.81, 17.70, 2.62, 35.90, 21.83, 29.71,
73.82798624038696,1.02, 0.03, 0.23, 2.44, -2.08, -1.04, 35.31, 20.94, 30.96,
73.93884134292603,0.97, 0.06, 0.23, -9.83, -7.63, -0.24, 35.93, 20.95, 29.88,
74.05015540122986,0.96, 0.11, 0.22, 1.22, -3.36, -2.01, 36.33, 21.72, 28.87,
74.15984272956848,0.97, 0.19, 0.23, 31.80, 4.76, -0.31, 35.46, 21.89, 29.02,
74.27142667770386,0.95, 0.12, 0.22, 56.70, 10.74, 10.93, 35.67, 19.36, 30.88,
74.38130307197571,0.95, 0.06, 0.21, 40.95, 2.87, 2.32, 35.44, 16.58, 31.86,
74.49003839492798,1.01, 0.05, 0.22, 30.40, 5.37, 2.87, 35.23, 15.87, 31.08,
74.60012435913086,0.95, 0.04, 0.21, 39.18, 1.53, 4.33, 35.44, 14.47, 31.81,
74.70892333984375,0.96, -0.03, 0.22, 27.53, 1.40, -0.43, 35.89, 12.73, 33.41,
74.81897926330566,1.00, -0.03, 0.22, 4.39, 14.10, -14.22, 35.94, 12.54, 33.02,
74.92924737930298,1.24, 0.03, 0.13, -9.22, 14.16, -20.75, 35.74, 14.32, 34.38,
75.03848576545715,1.05, -0.22, 0.08, 4.94, 3.17, -4.76, 35.41, 15.05, 35.55,
75.14749670028687,1.06, -0.27, 0.15, -5.62, -2.62, 7.20, 34.86, 15.00, 34.97,
75.25738835334778,0.89, -0.17, 0.24, -25.57, -8.85, 6.53, 35.34, 15.25, 36.05,
75.36749815940857,0.68, -0.02, 0.12, -15.93, -15.38, 15.63, 36.72, 14.94, 32.63,
75.47665238380432,1.00, -0.01, 0.24, -23.25, 3.17, -6.71, 36.74, 15.25, 32.06,
75.58648133277893,0.98, -0.05, 0.26, -26.06, 7.63, 4.15, 36.65, 16.66, 33.23,
75.69761276245117,0.89, -0.01, 0.22, -39.92, -8.85, 1.28, 36.28, 17.53, 33.28,
75.80782866477966,0.99, 0.03, 0.29, -46.45, -1.04, -1.71, 37.50, 19.45, 31.74,
75.91908645629883,1.05, 0.08, 0.26, -39.37, 4.39, 6.04, 37.76, 20.34, 31.36,
76.02850580215454,0.95, 0.06, 0.17, -15.87, 10.01, 23.07, 37.77, 20.61, 31.45,
76.13772130012512,1.01, 0.17, 0.07, -7.32, -5.49, 28.44, 38.01, 20.17, 31.27,
76.24891376495361,0.93, 0.11, 0.11, -14.04, -16.78, 8.18, 38.40, 18.59, 30.97,
76.35896587371826,1.06, 0.19, 0.17, -22.46, -12.21, -9.83, 39.64, 18.87, 29.17,
76.46941781044006,0.93, 0.15, 0.21, -43.70, -7.69, -14.22, 39.73, 20.72, 28.58,
76.57849764823914,0.90, 0.12, 0.12, -87.22, -3.36, -28.32, 38.92, 23.97, 27.10,
76.69015073776245,1.09, 0.16, 0.14, -99.98, -5.55, -26.31, 38.71, 27.93, 24.19,
76.80095076560974,0.97, 0.24, 0.12, -72.45, -7.63, -17.76, 37.79, 30.92, 20.61,
76.91115856170654,0.96, 0.20, 0.16, -67.75, -7.57, -14.10, 36.83, 33.46, 17.68,
77.02044916152954,1.06, 0.20, 0.14, -74.16, -14.47, -19.17, 35.95, 34.44, 13.33,
77.12961912155151,0.98, 0.11, 0.12, -64.51, -23.25, -35.83, 34.23, 35.73, 9.92,
77.23947405815125,0.94, 0.14, 0.16, -38.39, -9.83, -12.57, 33.22, 36.58, 6.36,
77.35005259513855,0.95, 0.00, 0.20, -14.95, -3.72, -11.35, 33.06, 36.65, 4.60,
77.45995330810547,0.96, 0.01, 0.16, -20.63, 6.65, -12.76, 32.48, 37.79, 3.81,
77.56968259811401,1.01, -0.07, 0.19, -39.18, 9.64, -26.31, 33.11, 36.94, 3.41,
77.68089461326599,0.99, -0.15, 0.17, -49.38, 4.58, -33.57, 30.83, 38.11, 1.46,
77.79130816459656,0.97, -0.17, 0.14, -58.47, 2.44, -32.23, 29.77, 38.02, -2.05,
77.90133357048035,1.00, -0.12, 0.12, -54.44, 0.73, -16.54, 28.43, 36.73, -3.14,
78.0110023021698,1.01, -0.12, 0.18, -45.53, -5.49, -2.20, 27.98, 35.38, -5.65,
78.1213161945343,0.92, -0.16, 0.24, -35.64, -7.20, -1.46, 27.67, 33.01, -7.41,
78.23070669174194,0.96, -0.17, 0.20, -26.98, 0.85, -5.25, 27.51, 31.63, -7.98,
78.34104919433594,0.99, -0.17, 0.20, -21.67, -2.38, 2.32, 27.49, 29.97, -9.22,
78.45110249519348,0.97, -0.19, 0.19, -26.06, -5.13, 9.16, 28.03, 28.39, -10.63,
78.56086349487305,0.97, 0.01, 0.23, -32.17, -3.11, 19.84, 27.67, 26.31, -11.27,
78.67137479782104,0.90, 0.07, 0.23, -15.87, 11.96, 21.97, 28.30, 23.28, -13.27,
78.78015327453613,0.94, 0.16, 0.14, -11.72, 19.41, 14.40, 29.86, 21.50, -11.30,
78.88965034484863,1.08, 0.27, 0.20, -7.39, 15.69, 10.99, 31.10, 19.73, -11.41,
78.9993028640747,0.95, 0.18, 0.16, -1.34, 4.46, -0.31, 32.30, 18.85, -9.86,
79.11002469062805,0.99, 0.19, 0.14, -19.84, -3.17, -2.50, 32.17, 18.08, -9.74,
79.22001147270203,0.99, 0.21, 0.12, -17.40, -6.41, -4.21, 32.76, 17.75, -10.61,
79.33010840415955,0.95, 0.22, 0.16, -6.65, -5.00, -2.81, 31.40, 16.94, -10.34,
79.43997621536255,0.95, 0.16, 0.11, -3.23, -6.71, -0.79, 31.14, 16.67, -11.77,
79.55141425132751,1.00, 0.17, 0.15, -11.11, -5.00, -5.43, 30.65, 16.41, -11.45,
79.66213870048523,0.97, 0.14, 0.16, -2.87, -0.06, -9.95, 29.98, 16.44, -10.89,
79.77150893211365,0.98, 0.08, 0.17, 5.74, -0.43, -11.96, 30.58, 17.88, -11.11,
79.88204264640808,1.05, -0.04, 0.16, 16.66, 2.32, -6.35, 30.19, 18.42, -11.33,
79.99243807792664,1.00, -0.05, 0.21, 20.51, -15.50, 0.18, 29.60, 20.20, -11.33,
80.10272240638733,1.02, 0.01, 0.29, -0.61, -7.81, 3.78, 28.85, 21.08, -12.01,
80.21302127838135,0.87, 0.09, 0.21, 3.23, -14.16, 8.00, 28.47, 20.76, -12.07,
80.3231725692749,0.97, 0.11, 0.28, 6.65, -12.51, 3.54, 27.80, 20.53, -12.10,
80.43208861351013,0.95, 0.04, 0.28, -0.12, -1.46, -4.52, 26.73, 20.96, -12.74,
80.541672706604,1.00, 0.05, 0.24, 1.77, -3.17, -12.21, 26.92, 21.11, -13.23,
80.65174126625061,0.92, 0.03, 0.28, -9.64, -7.63, -26.06, 25.89, 22.22, -13.62,
80.76111578941345,1.02, -0.03, 0.33, -10.38, -1.10, -19.96, 25.94, 22.31, -14.89,
80.87029385566711,0.92, -0.03, 0.28, -11.29, -2.44, -15.20, 24.60, 22.75, -15.01,
80.97991251945496,0.95, -0.14, 0.29, -4.94, 3.11, 0.98, 25.02, 22.39, -15.25,
81.08834457397461,0.93, -0.02, 0.26, -5.80, 6.84, -5.92, 25.50, 22.30, -14.27,
81.19909763336182,0.94, -0.09, 0.24, 5.86, 12.39, -6.77, 26.82, 22.88, -13.98,
81.30934643745422,1.04, -0.12, 0.30, -4.21, -2.32, -7.32, 26.94, 23.05, -13.59,
81.4195466041565,0.91, -0.09, 0.29, -13.18, -0.37, -3.78, 26.64, 22.55, -14.28,
81.52983069419861,0.96, -0.07, 0.25, -0.61, -0.43, 15.56, 26.76, 22.02, -13.85,
81.640207529068,0.97, -0.07, 0.28, 5.25, 0.49, 7.45, 26.66, 22.02, -14.31,
81.74984431266785,0.92, -0.10, 0.26, 14.95, 3.91, 3.78, 26.05, 22.17, -13.99,
81.86018919944763,1.03, -0.16, 0.27, 12.45, -1.28, -9.95, 26.78, 23.45, -13.18,
81.97006964683533,0.98, -0.10, 0.27, 9.03, -3.97, 3.36, 26.49, 24.89, -12.38,
82.08027744293213,0.95, -0.17, 0.24, -9.22, 0.37, -4.15, 26.50, 24.41, -13.55,
82.19006395339966,0.98, -0.11, 0.23, -8.24, -0.85, 5.80, 26.17, 23.77, -12.96,
82.29960417747498,0.98, -0.10, 0.23, -8.12, 2.69, -3.72, 27.09, 22.72, -12.92,
82.41004157066345,0.97, -0.10, 0.24, -2.08, -1.46, -0.92, 27.01, 22.95, -12.57,
82.52063345909119,0.96, -0.09, 0.24, 0.43, -2.87, 1.22, 26.53, 23.00, -13.32,
82.63241863250732,0.95, -0.11, 0.25, -2.14, -5.62, -2.56, 26.22, 22.72, -13.00,
82.74158072471619,0.98, -0.12, 0.26, -2.20, -4.64, -1.46, 25.98, 22.50, -13.39,
82.85174560546875,0.96, -0.13, 0.24, 10.62, -0.92, -6.04, 26.25, 23.62, -13.85,
82.96316528320312,0.96, -0.15, 0.31, -6.04, -6.16, -5.25, 25.89, 23.40, -13.79,
83.07339334487915,0.96, -0.08, 0.31, -14.83, -1.40, 9.77, 24.95, 22.71, -14.38,
83.18267965316772,0.90, -0.08, 0.24, 1.04, -5.74, 10.80, 25.48, 21.80, -12.99,
83.29283213615417,0.97, -0.09, 0.30, 3.42, -0.61, 2.62, 25.78, 21.36, -14.00,
83.40345025062561,0.96, -0.09, 0.28, -0.18, -1.71, -4.64, 25.52, 21.85, -14.11,
83.51489973068237,0.95, -0.07, 0.30, -1.22, 1.95, -1.10, 25.70, 22.12, -14.01,
83.6258590221405,0.97, -0.08, 0.28, 0.12, -1.59, -0.61, 25.56, 22.12, -15.26,
83.7357804775238,0.96, -0.06, 0.30, 0.37, -3.30, 4.58, 25.96, 21.72, -14.10,
83.8465735912323,0.91, -0.08, 0.30, -0.37, -2.14, 5.49, 25.05, 21.40, -14.81,
83.95718502998352,0.97, -0.11, 0.34, -4.03, 6.96, -6.16, 25.79, 21.23, -14.59,
84.06724500656128,0.96, -0.10, 0.24, -3.97, 1.46, -11.96, 26.27, 20.75, -14.81,
84.17721748352051,0.93, -0.12, 0.28, -3.36, 4.03, 4.70, 26.01, 21.28, -13.45,
84.28724241256714,1.01, -0.05, 0.23, 1.46, -0.92, -1.95, 25.83, 21.30, -13.98,
84.39822602272034,0.96, -0.10, 0.27, 2.62, -1.34, 1.77, 26.39, 21.35, -13.60,
84.50792860984802,0.95, -0.10, 0.28, 4.94, -1.28, 3.48, 26.21, 21.07, -13.10,
84.61633968353271,0.98, -0.09, 0.27, 1.77, 2.93, -0.43, 26.29, 21.17, -12.57,
84.72709321975708,0.96, -0.10, 0.26, -1.22, 1.10, -0.55, 26.95, 21.74, -12.06,
84.83581161499023,0.96, -0.07, 0.26, 0.24, 0.79, -1.53, 26.21, 21.74, -14.03,
84.9455497264862,0.98, -0.09, 0.25, 5.07, -2.01, -1.59, 26.84, 21.47, -13.40,
85.05613088607788,0.96, -0.11, 0.28, -2.93, -5.43, -1.83, 26.78, 22.40, -12.95,
85.16597294807434,0.95, -0.10, 0.27, -3.60, -3.78, -3.05, 25.77, 22.18, -14.34,
85.27536869049072,0.96, -0.10, 0.28, -3.11, -1.83, -0.12, 25.34, 22.18, -14.79,
85.3863275051117,0.95, -0.10, 0.29, -0.79, -3.42, -1.65, 25.34, 21.97, -13.90,
85.49617600440979,0.94, -0.10, 0.28, 0.00, -1.40, -0.49, 25.39, 22.11, -15.30,
85.60779023170471,0.98, -0.12, 0.31, 0.43, -0.49, 1.04, 25.82, 22.00, -15.08,
85.71897768974304,0.94, -0.11, 0.30, -3.60, -1.22, 0.73, 26.31, 22.40, -14.21,
85.82937264442444,0.94, -0.10, 0.30, -3.48, -0.06, 0.49, 25.67, 21.70, -13.75,
85.93952298164368,0.94, -0.09, 0.28, -1.53, 1.16, 2.69, 25.89, 21.23, -13.60,
86.05035328865051,0.91, -0.07, 0.31, 1.77, 7.93, 6.29, 25.76, 21.13, -13.32,
86.15970921516418,0.93, -0.06, 0.25, 3.23, 8.61, 10.80, 26.04, 21.22, -14.72,
86.2695369720459,0.97, -0.06, 0.26, -0.79, 13.67, 12.15, 27.32, 20.50, -13.07,
86.38025212287903,1.00, 0.00, 0.20, -3.05, 4.94, 8.30, 27.53, 19.85, -11.78,
86.48927521705627,1.03, 0.05, 0.18, 1.71, -3.91, 3.05, 28.22, 19.70, -12.26,
86.60003662109375,0.99, 0.03, 0.19, 2.38, -9.22, -5.49, 27.50, 20.24, -12.82,
86.70968079566956,0.96, 0.01, 0.24, 3.30, -14.34, -7.81, 25.95, 20.31, -13.79,
86.81959676742554,0.95, -0.01, 0.27, 3.30, -14.65, -3.97, 26.14, 21.15, -13.59,
86.92975449562073,0.94, -0.05, 0.31, 5.13, -8.06, 1.89, 24.76, 21.44, -15.31,
87.03857851028442,0.96, -0.05, 0.33, 10.31, -0.92, 6.71, 24.96, 22.12, -14.61,
87.14832997322083,0.93, -0.04, 0.34, 22.83, 3.72, 14.04, 24.94, 22.08, -13.20,
87.25787615776062,0.96, -0.04, 0.33, 35.03, 5.49, 21.42, 25.00, 23.90, -11.94,
87.36737108230591,0.97, -0.03, 0.32, 43.64, -2.26, 21.24, 26.20, 25.42, -11.73,
87.47732424736023,0.88, 0.15, 0.23, 52.37, -1.59, 29.11, 26.28, 27.39, -10.33,
87.58639311790466,0.95, 0.12, 0.27, 61.22, 13.37, 34.85, 27.97, 29.68, -8.70,
87.69701600074768,1.03, 0.13, 0.24, 58.78, 13.92, 25.82, 28.61, 31.03, -6.32,
87.806485414505,0.92, 0.11, 0.22, 60.24, 6.96, 24.17, 29.90, 31.91, -3.41,
87.9161126613617,0.99, 0.10, 0.25, 41.02, 0.67, 15.99, 31.25, 32.90, -1.23,
88.02579474449158,0.98, 0.10, 0.27, 27.22, -0.43, 8.24, 32.32, 33.83, 1.07,
88.13598346710205,0.93, 0.10, 0.25, 14.71, -3.11, 3.30, 32.17, 34.53, 0.46,
88.24628448486328,0.88, 0.15, 0.30, 18.49, 5.25, -0.79, 32.32, 34.39, 1.00,
88.35637617111206,0.97, 0.06, 0.31, 4.39, 14.95, 3.66, 32.89, 35.17, 2.88,
88.46567177772522,0.96, 0.16, 0.26, 1.46, 3.48, -1.34, 33.08, 34.85, 3.27,
88.57499361038208,0.96, 0.04, 0.26, -17.88, -1.65, -8.73, 33.06, 35.14, 2.70,
88.68455910682678,1.00, 0.13, 0.25, -13.49, -3.72, -4.46, 32.51, 35.49, 2.37,
88.79504418373108,0.97, 0.10, 0.21, -8.24, -2.08, -4.15, 31.95, 35.44, 1.86,
88.90388107299805,0.97, 0.09, 0.23, -3.85, -2.75, -2.14, 31.73, 35.19, 1.40,
89.01350474357605,0.97, 0.09, 0.23, 0.92, -2.99, -3.05, 31.54, 35.01, 0.38,
89.12323713302612,0.94, 0.08, 0.21, 4.94, 0.67, -3.23, 31.35, 34.92, 0.23,
89.23188161849976,0.98, 0.08, 0.24, 2.93, 3.72, -2.20, 31.45, 35.86, 1.23,
89.34121108055115,0.97, 0.07, 0.24, 0.06, 2.87, -1.59, 31.58, 35.75, 1.95,
89.45130181312561,0.97, 0.06, 0.23, 2.14, 0.37, -1.53, 31.01, 36.15, 2.01,
89.5596649646759,0.98, 0.06, 0.22, 1.10, -0.98, -0.61, 31.57, 36.04, 1.71,
89.6703565120697,0.96, 0.08, 0.26, -2.14, -0.06, 1.04, 31.81, 35.99, 3.12,
89.7788782119751,0.97, 0.08, 0.25, -0.18, -1.53, -0.31, 32.10, 36.07, 2.03,
89.89029026031494,0.97, 0.08, 0.24, -1.77, -2.01, 0.00, 31.38, 36.22, 2.33,
90.00109529495239,0.97, 0.07, 0.24, -1.40, -0.98, 0.18, 31.45, 35.73, 1.46,
90.11123418807983,0.97, 0.07, 0.25, -2.44, -0.98, 0.49, 31.42, 35.34, 1.98,
90.22120642662048,0.98, 0.08, 0.23, -3.91, -0.73, 0.79, 31.99, 35.36, 2.09,
90.33118963241577,0.98, 0.08, 0.25, -5.13, -1.40, 0.85, 31.57, 35.10, 1.86,
90.44050717353821,0.97, 0.09, 0.24, -3.11, -1.40, 0.61, 32.01, 35.11, 1.57,
90.55274486541748,0.97, 0.09, 0.24, -2.26, -0.24, 0.31, 31.88, 34.81, 1.37,
90.66298723220825,0.97, 0.09, 0.24, -0.79, 1.89, -0.06, 32.69, 34.92, 1.26,
90.7732048034668,0.96, 0.11, 0.22, 5.00, 5.13, 1.46, 32.03, 34.83, 2.21,
90.88281393051147,0.94, 0.14, 0.21, 13.00, 5.80, 4.52, 32.37, 35.28, 2.09,
90.9916250705719,0.98, 0.14, 0.20, 14.34, 8.00, 10.50, 32.91, 34.81, 3.69,
91.10195922851562,0.98, 0.17, 0.20, 34.91, 10.25, 6.96, 33.72, 34.75, 3.92,
91.21196031570435,0.96, 0.13, 0.20, 41.81, 6.77, 2.20, 34.48, 35.29, 5.68,
91.32130289077759,1.00, 0.15, 0.23, 26.18, -3.42, -5.00, 33.92, 35.69, 8.02,
91.43111062049866,0.98, 0.06, 0.22, 16.85, -12.45, -10.56, 34.23, 36.65, 8.14,
91.54050087928772,0.96, 0.01, 0.29, 9.89, -17.64, -9.34, 33.36, 38.43, 7.34,
91.65044212341309,0.92, -0.01, 0.30, 9.77, -8.30, -11.72, 32.53, 39.51, 7.63,
91.7610604763031,0.92, -0.02, 0.32, 9.34, -1.65, -9.09, 31.85, 39.78, 5.97,
91.87156248092651,0.92, -0.09, 0.26, 11.96, 7.39, -1.46, 31.43, 41.27, 7.62,
91.98131060600281,1.00, -0.13, 0.27, 6.29, -2.56, 0.85, 31.74, 40.95, 8.83,
92.0906093120575,0.99, -0.09, 0.32, 4.94, -7.02, 5.07, 32.29, 40.99, 7.57,
92.20053839683533,0.92, -0.10, 0.34, -0.06, -9.77, 6.90, 32.58, 40.26, 7.81,
92.30979132652283,0.94, -0.04, 0.36, -10.25, -6.90, 0.24, 32.45, 39.93, 7.21,
92.41990637779236,0.89, -0.02, 0.32, -14.71, -0.61, -2.20, 32.63, 39.53, 6.53,
92.52956342697144,0.95, -0.04, 0.34, -15.75, 3.60, -1.77, 32.15, 39.56, 5.71,
92.64015769958496,0.95, -0.03, 0.35, -12.70, 1.53, -4.70, 31.37, 39.72, 5.59,
92.74930381774902,0.93, 0.01, 0.33, -4.46, 7.02, -1.89, 31.53, 39.21, 4.36,
92.85843777656555,0.96, -0.04, 0.31, 7.69, 6.71, 7.14, 32.25, 38.92, 6.27,
92.96830582618713,0.96, -0.06, 0.31, 4.58, 3.30, 0.79, 32.34, 39.59, 6.90,
93.07913088798523,0.96, -0.01, 0.27, 13.61, 4.58, 6.10, 32.52, 39.28, 7.48,
93.18916654586792,1.02, -0.02, 0.29, 13.31, 11.54, 13.85, 33.50, 38.46, 8.91,
93.2975332736969,0.83, 0.06, 0.22, 16.48, 16.24, 8.67, 34.25, 37.95, 10.67,
93.40769982337952,0.89, 0.09, 0.18, 20.63, 13.92, 12.88, 35.05, 37.39, 11.78,
93.51821541786194,1.13, 0.09, 0.23, 17.70, 21.55, 17.88, 35.68, 36.27, 13.93,
93.6282229423523,0.92, 0.07, 0.14, 10.44, 8.30, -11.60, 35.84, 36.22, 16.99,
93.73691368103027,0.93, 0.13, 0.14, 1.46, 9.22, 6.23, 35.00, 35.82, 17.43,
93.84530282020569,1.06, 0.09, 0.10, 3.36, 11.41, 2.44, 35.47, 35.97, 17.86,
93.95467066764832,0.99, 0.08, 0.11, 3.42, 4.82, -4.76, 35.24, 35.83, 18.51,
94.06440591812134,0.99, 0.09, 0.08, 1.46, -1.40, -0.12, 35.49, 35.79, 17.98,
94.17527675628662,1.00, 0.08, 0.09, 7.63, -4.03, 1.71, 36.02, 35.38, 19.76,
94.28371238708496,1.00, 0.08, 0.09, 4.27, -4.94, 2.08, 35.60, 35.64, 18.19,
94.3927116394043,1.00, 0.08, 0.11, 3.36, -6.04, 0.55, 35.66, 35.24, 19.95,
94.50228071212769,0.99, 0.08, 0.12, -4.70, -6.65, -1.65, 36.18, 35.21, 19.12,
94.61211848258972,0.99, 0.07, 0.14, -3.30, -4.46, -2.20, 35.73, 34.90, 17.00,
94.72234082221985,0.97, 0.07, 0.13, -0.92, -4.09, -0.85, 35.90, 35.39, 16.77,
94.83161091804504,1.00, 0.08, 0.14, -3.05, -1.71, -0.67, 35.82, 35.18, 16.82,
94.94110226631165,0.98, 0.08, 0.14, -1.10, -0.67, -1.16, 36.11, 35.50, 16.91,
95.05092930793762,0.98, 0.08, 0.14, 0.43, -0.37, -0.79, 35.97, 35.93, 16.53,
95.16035056114197,1.00, 0.07, 0.16, -1.04, 1.89, 0.55, 36.10, 35.71, 16.52,
95.27064251899719,0.99, 0.08, 0.14, 2.20, 1.59, 0.61, 35.91, 36.19, 17.99,
95.37988090515137,0.99, 0.08, 0.14, -0.85, -0.37, -0.24, 35.75, 35.71, 16.30,
95.48956680297852,0.99, 0.08, 0.13, 2.14, -1.04, 0.79, 36.05, 35.91, 17.16,
95.6005871295929,0.98, 0.08, 0.11, 3.05, 0.61, -0.12, 35.78, 35.58, 16.94,
95.71052479743958,1.00, 0.08, 0.14, -1.40, 0.61, 0.92, 36.15, 35.91, 16.98,
95.82102847099304,0.99, 0.09, 0.14, 0.49, -0.24, -0.67, 35.90, 36.10, 16.98,
95.93096923828125,0.99, 0.08, 0.13, -0.67, 0.06, -0.06, 36.23, 35.45, 16.63,
96.04045295715332,0.99, 0.09, 0.14, -0.06, -0.37, -0.43, 36.01, 36.17, 16.82,
96.15141129493713,0.99, 0.08, 0.10, 2.32, 0.92, -1.28, 35.67, 36.11, 17.21,
96.26194524765015,1.00, 0.09, 0.14, -1.40, -1.10, -0.43, 35.97, 35.58, 16.59,
96.37209296226501,0.99, 0.10, 0.14, -2.26, -0.98, -0.37, 35.42, 35.85, 17.40,
96.48159050941467,0.99, 0.09, 0.13, -2.38, -1.65, 0.00, 36.05, 35.42, 17.68,
96.59079313278198,0.99, 0.09, 0.13, -2.01, -1.28, -0.06, 35.89, 35.82, 16.31,
96.70043063163757,0.98, 0.08, 0.12, -3.05, -0.18, -0.12, 36.10, 36.00, 17.19,
96.81076288223267,0.98, 0.09, 0.13, -1.53, -0.98, -0.61, 36.16, 35.82, 16.33,
96.92038989067078,1.00, 0.10, 0.14, -0.92, -0.61, 0.61, 36.24, 35.51, 15.81,
97.03216862678528,1.00, 0.10, 0.13, -1.10, -1.40, -1.28, 35.99, 36.32, 16.98,
97.14116406440735,0.98, 0.09, 0.13, 2.62, 0.37, -0.92, 36.16, 35.96, 18.08,
97.25046348571777,0.99, 0.09, 0.15, -5.19, -1.04, -1.34, 36.10, 36.38, 17.13,
97.36089873313904,1.00, 0.10, 0.13, -1.22, -2.93, -0.92, 35.64, 36.11, 16.80,
97.47066473960876,1.00, 0.07, 0.14, 2.99, 0.12, 0.55, 36.02, 35.88, 17.38,
97.58016180992126,0.98, 0.11, 0.14, 1.83, -1.28, -0.12, 36.38, 35.97, 16.02,
97.69100046157837,0.99, 0.09, 0.14, 5.25, 1.22, -1.16, 36.18, 35.25, 17.79,
97.80107259750366,0.99, 0.08, 0.14, -0.12, -1.10, 1.10, 36.74, 35.86, 17.55,
97.91102409362793,0.99, 0.11, 0.14, 0.43, -1.77, -0.31, 36.34, 35.46, 17.53,
98.02025508880615,1.00, 0.08, 0.14, 0.31, -2.32, -0.61, 36.41, 35.47, 16.80,
98.12973809242249,0.94, 0.16, 0.18, 10.80, -1.95, 5.62, 36.28, 36.00, 17.24,
98.23997139930725,1.04, -0.03, 0.10, -13.31, 6.23, -0.67, 36.43, 35.07, 17.52,
98.35026049613953,1.01, 0.13, 0.10, -21.61, -1.34, -14.34, 36.17, 35.77, 17.11,
98.45931816101074,0.92, 0.09, 0.11, 5.68, -1.16, 10.07, 35.88, 36.06, 15.75,
98.56923842430115,1.10, 0.07, 0.17, -33.51, -5.74, -10.50, 35.91, 35.77, 16.41,
98.68013620376587,0.88, 0.19, 0.13, 15.63, 1.89, -3.05, 35.45, 36.77, 15.47,
98.7901964187622,1.02, 0.05, 0.12, 7.69, 0.55, -1.83, 35.89, 36.28, 15.49,
98.89983940124512,1.00, 0.11, 0.12, -3.48, 1.22, 1.40, 35.06, 36.18, 15.87,
99.00942182540894,1.00, -0.00, 0.08, -21.30, -10.50, -3.78, 35.39, 36.60, 15.92,
99.12004566192627,1.00, 0.12, 0.13, -21.30, -15.44, -10.01, 34.24, 37.26, 14.54,
99.22935175895691,0.98, 0.07, 0.20, -11.84, -5.07, 2.26, 34.31, 37.16, 12.79,
99.33959364891052,0.96, 0.10, 0.20, 4.46, -6.71, 5.55, 34.47, 37.07, 11.23,
99.44859743118286,0.96, 0.09, 0.20, 12.08, -2.32, 7.20, 34.69, 36.47, 11.72,
99.5591094493866,0.96, 0.09, 0.20, 4.52, -2.38, 3.17, 35.02, 35.91, 11.21,
99.6693377494812,0.96, 0.10, 0.21, 1.22, -2.81, 1.83, 35.28, 36.24, 11.82,
99.7794098854065,0.97, 0.09, 0.20, -4.09, -2.20, -0.24, 35.41, 35.40, 10.57,
99.8905999660492,0.97, 0.11, 0.19, -0.79, 0.06, -0.12, 34.79, 36.17, 11.51,
100.00104451179504,0.99, 0.10, 0.21, -2.26, 0.24, -0.06, 35.46, 36.28, 11.39,
100.11099123954773,0.97, 0.12, 0.20, -0.67, 0.73, -1.28, 35.12, 35.82, 11.04,
100.22120070457458,0.98, 0.12, 0.20, 0.61, 0.79, -0.67, 35.14, 35.75, 11.46,
100.33097648620605,0.98, 0.11, 0.19, 3.72, 0.00, 15.50, 35.50, 35.55, 11.63,
100.44033288955688,1.00, 0.11, 0.22, -1.59, -0.79, -1.95, 35.23, 36.30, 11.49,
100.5499267578125,0.97, 0.12, 0.22, 21.42, -2.20, 4.21, 35.36, 35.49, 12.22,
100.65959525108337,0.99, 0.10, 0.21, 14.40, -1.34, -0.31, 35.60, 35.82, 12.92,
100.76937747001648,1.00, 0.07, 0.22, 9.95, -1.34, 0.06, 35.56, 35.79, 13.45,
100.87984251976013,0.96, 0.09, 0.24, -2.75, -6.53, -6.10, 35.06, 35.94, 12.51,
100.99070072174072,0.97, 0.09, 0.25, -4.33, -3.78, -4.15, 35.11, 35.84, 11.89,
101.10149955749512,0.96, 0.08, 0.24, -5.62, -2.32, -3.11, 35.23, 35.79, 11.73,
101.21245336532593,0.97, 0.07, 0.24, -3.42, -0.73, -0.31, 34.81, 36.27, 12.18,
101.32253980636597,0.96, 0.08, 0.24, 0.37, 0.55, 0.31, 35.44, 35.95, 12.05,
101.4321038722992,0.97, 0.08, 0.23, 1.04, 0.73, 0.49, 35.68, 35.80, 11.85,
101.54031109809875,0.97, 0.06, 0.24, -0.55, -0.43, 0.00, 35.89, 36.19, 11.01,
101.65100646018982,0.96, 0.09, 0.24, -0.55, -0.12, -0.06, 35.99, 36.08, 11.78,
101.75993824005127,0.97, 0.08, 0.24, -0.31, 0.00, 0.00, 35.13, 36.52, 12.82,
101.87058758735657,0.98, 0.09, 0.24, -0.49, 0.85, -0.37, 35.27, 36.36, 12.00,
101.9801857471466,0.96, 0.07, 0.20, 3.11, 1.53, -1.28, 35.31, 36.07, 13.09,
102.08983516693115,0.99, 0.09, 0.22, 0.31, -1.04, 0.12, 35.41, 35.90, 11.39,
102.19952321052551,0.97, 0.09, 0.24, 0.31, -1.34, -0.79, 35.29, 36.22, 12.56,
102.3104898929596,0.98, 0.09, 0.24, -1.40, -1.53, -0.43, 36.25, 36.07, 12.95,
102.42216467857361,0.96, 0.09, 0.24, -0.61, -1.83, -0.49, 35.80, 35.69, 11.90,
102.53135776519775,0.97, 0.09, 0.25, -3.60, -1.53, 0.31, 35.34, 35.71, 12.06,
102.64277982711792,0.97, 0.09, 0.23, 0.43, -0.79, -0.98, 35.55, 35.88, 12.37,
102.75290846824646,0.98, 0.09, 0.24, -0.61, -0.79, -0.06, 35.27, 36.63, 12.35,
102.86286067962646,0.97, 0.09, 0.24, -1.65, 0.43, -0.79, 35.22, 35.80, 12.05,
102.97295665740967,0.98, 0.09, 0.25, -2.14, -0.67, -0.31, 35.30, 35.55, 12.87,
103.08277797698975,0.97, 0.10, 0.24, 0.12, -1.46, -1.46, 35.83, 35.38, 12.94,
103.19247651100159,0.97, 0.09, 0.24, 0.06, -2.08, -1.53, 35.83, 35.42, 12.30,
103.3018102645874,0.97, 0.09, 0.25, -0.37, -2.26, -0.49, 35.93, 36.11, 11.65,
103.41233086585999,0.97, 0.09, 0.25, -0.61, -2.38, -0.43, 35.52, 35.68, 11.47,
103.52246570587158,0.96, 0.08, 0.22, 1.28, -1.22, -0.24, 35.00, 36.08, 11.77,
103.63294911384583,0.97, 0.09, 0.24, -0.43, -2.99, 0.06, 35.51, 35.46, 12.24,
103.74280142784119,0.96, 0.10, 0.25, 0.18, -0.43, 0.73, 35.89, 35.97, 12.59,
103.85273241996765,0.96, 0.10, 0.25, -0.67, -0.61, 0.49, 35.29, 35.90, 11.07,
103.96204376220703,0.97, 0.09, 0.25, -1.65, 0.24, -0.18, 35.61, 35.42, 10.69,
104.07110691070557,0.99, 0.11, 0.23, -6.59, 1.59, 0.73, 36.12, 35.90, 12.13,
104.1793270111084,0.96, 0.10, 0.24, -2.87, -2.81, 1.40, 36.06, 36.07, 11.23,
104.29076814651489,0.95, 0.12, 0.26, 0.61, 4.21, -0.31, 36.72, 35.93, 10.68,
104.40073370933533,0.97, 0.11, 0.24, -1.95, 0.06, -0.43, 36.24, 35.29, 12.15,
104.50968074798584,0.94, 0.12, 0.24, -0.85, -0.37, -1.65, 35.86, 35.31, 12.00,
104.61963534355164,0.97, 0.10, 0.23, 1.83, -0.12, -1.16, 35.88, 35.96, 12.26,
104.72894716262817,0.95, 0.11, 0.24, -1.04, 2.69, -2.56, 36.30, 35.83, 11.84,
104.83859705924988,0.98, 0.10, 0.25, 0.31, -1.46, -0.24, 35.85, 36.33, 12.96,
104.94865226745605,0.97, 0.10, 0.23, 0.18, -3.30, -1.65, 36.02, 35.96, 11.16,
105.05919742584229,0.97, 0.09, 0.26, -0.06, -4.39, -1.46, 36.15, 36.12, 11.68,
105.16988277435303,0.97, 0.09, 0.27, -0.06, -2.56, -0.92, 35.95, 35.79, 11.32,
105.27954387664795,0.96, 0.10, 0.26, -0.43, -1.46, -0.12, 35.74, 36.10, 11.62,
105.38978266716003,0.96, 0.10, 0.25, -2.14, -0.85, -0.12, 36.10, 36.12, 11.85,
105.50215291976929,0.96, 0.10, 0.25, -1.04, -0.73, -0.37, 35.86, 35.94, 12.54,
105.61231875419617,0.96, 0.10, 0.22, 1.10, 0.92, -0.85, 35.69, 36.06, 10.97,
105.72251844406128,0.98, 0.10, 0.24, -1.46, -3.60, 5.00, 35.86, 35.74, 10.71,
105.83288240432739,0.97, 0.12, 0.26, -0.61, 1.34, 1.59, 36.24, 35.39, 10.79,
105.9424889087677,0.95, 0.12, 0.26, 1.10, 0.24, 0.73, 36.54, 35.64, 11.93,
106.05170321464539,0.97, 0.10, 0.25, -1.28, 1.95, -0.31, 36.32, 35.22, 11.54,
106.16162061691284,0.96, 0.12, 0.26, -3.91, 3.05, -1.34, 36.02, 35.50, 10.36,
106.27187442779541,0.96, 0.10, 0.25, 0.55, 0.49, -1.16, 36.16, 35.85, 11.23,
106.3810682296753,0.96, 0.11, 0.25, 0.79, 2.26, -1.16, 35.60, 35.71, 11.52,
106.48942923545837,0.96, 0.11, 0.23, -1.83, -0.49, -1.95, 36.12, 35.41, 11.89,
106.60002446174622,0.98, 0.11, 0.24, -1.46, 1.04, -0.18, 35.19, 35.82, 11.74,
106.70957732200623,0.96, 0.12, 0.22, -0.92, -1.46, -0.85, 36.34, 35.23, 12.32,
106.81989574432373,0.97, 0.11, 0.23, 0.67, -3.23, -1.40, 36.29, 36.32, 10.99,
106.92969059944153,0.97, 0.11, 0.25, 1.59, -3.36, -1.04, 36.22, 36.21, 11.84,
107.03914737701416,0.96, 0.10, 0.25, 1.28, -2.01, -1.59, 35.96, 35.97, 11.66,
107.15001797676086,0.97, 0.11, 0.26, 1.28, -1.40, -1.53, 35.71, 36.06, 12.43,
107.25992918014526,0.97, 0.09, 0.26, 2.14, -0.18, -0.98, 35.64, 35.96, 11.79,
107.36820673942566,0.95, 0.09, 0.25, 1.16, 0.31, -1.71, 35.58, 36.34, 11.74,
107.47760915756226,0.96, 0.09, 0.24, 1.16, -0.43, -1.34, 35.68, 36.82, 12.00,
107.58905577659607,0.97, 0.09, 0.24, 1.10, 0.37, -0.49, 35.45, 35.90, 12.06,
107.69790554046631,0.96, 0.08, 0.28, -0.37, -0.18, -0.61, 35.57, 36.13, 11.61,
107.80903577804565,0.97, 0.09, 0.24, -0.92, -0.55, -1.10, 35.83, 36.04, 11.76,
107.91905164718628,0.97, 0.09, 0.25, -1.40, 0.98, -0.67, 35.64, 36.87, 12.52,
108.02841091156006,0.97, 0.09, 0.25, -0.43, 1.22, -0.67, 35.71, 36.56, 12.37,
108.13911366462708,0.96, 0.09, 0.26, 0.18, 2.50, -0.55, 35.93, 35.88, 11.71,
108.2482488155365,0.96, 0.10, 0.22, 1.95, 6.35, 2.20, 35.53, 36.80, 13.50,
108.35804796218872,0.98, 0.07, 0.21, 0.67, 8.12, 0.98, 35.51, 36.07, 13.07,
108.46798920631409,0.97, 0.09, 0.18, -0.24, 9.09, 2.26, 35.82, 35.53, 14.87,
108.57794237136841,1.00, 0.11, 0.16, 0.61, 8.24, 3.05, 36.79, 36.18, 13.65,
108.68791103363037,1.00, 0.11, 0.16, 4.39, 5.13, 0.61, 36.18, 35.52, 15.19,
108.79798626899719,1.01, 0.10, 0.17, 0.24, 0.85, 0.31, 36.34, 35.40, 15.98,
108.90719366073608,0.97, 0.15, 0.17, -5.55, -1.16, -0.61, 36.57, 35.29, 15.22,
109.01677465438843,0.98, 0.14, 0.17, -1.34, -4.21, -3.23, 36.25, 34.86, 15.50,
109.12717247009277,0.99, 0.16, 0.19, 1.04, -7.08, -5.25, 36.45, 35.02, 14.16,
109.23909902572632,0.98, 0.13, 0.20, 3.60, -3.42, -11.23, 36.27, 36.04, 13.96,
109.34905815124512,0.98, 0.04, 0.17, 16.24, -14.22, -13.00, 35.06, 36.80, 14.47,
109.45830345153809,0.92, -0.03, 0.23, 3.97, -24.35, -15.87, 34.06, 37.78, 13.20,
109.56906151771545,0.87, -0.08, 0.27, -1.10, -14.16, -14.77, 33.50, 39.42, 11.23,
109.67928886413574,1.02, -0.08, 0.32, 2.38, -5.62, -6.23, 32.54, 40.97, 11.25,
109.79000091552734,0.95, -0.08, 0.34, 1.83, -7.39, 0.37, 32.59, 40.98, 10.67,
109.8989725112915,0.91, -0.09, 0.32, -2.69, -7.57, -3.60, 32.46, 41.30, 10.22,
110.00899934768677,0.96, -0.07, 0.35, -16.05, -1.53, -5.62, 31.97, 41.09, 8.96,
110.11901378631592,0.91, -0.02, 0.34, -8.91, -5.98, 0.73, 31.74, 41.00, 8.08,
110.22852349281311,0.92, -0.08, 0.31, 5.00, -2.87, 1.83, 31.56, 41.06, 7.84,
110.33739757537842,0.96, -0.08, 0.40, 3.66, -2.08, 5.80, 32.08, 40.92, 8.81,
110.44710397720337,0.93, -0.04, 0.37, -0.06, -1.04, 2.26, 31.85, 40.66, 8.12,
110.556800365448,0.91, -0.06, 0.37, 2.62, 0.92, 2.32, 32.31, 40.76, 8.89,
110.66674089431763,0.94, -0.08, 0.36, -0.43, -1.10, -0.37, 32.46, 40.95, 7.08,
110.7771725654602,0.92, -0.03, 0.37, -4.39, 0.67, 2.99, 32.95, 40.77, 7.74,
110.88659763336182,0.94, -0.09, 0.36, -2.01, -0.67, -2.62, 32.73, 40.27, 8.96,
110.9962797164917,0.91, -0.06, 0.33, -11.78, -1.16, -3.11, 32.20, 40.71, 8.40,
111.10704851150513,0.93, -0.03, 0.36, -9.16, -0.73, -1.40, 32.10, 40.27, 7.36,
111.21631956100464,0.90, -0.03, 0.37, -4.21, 0.37, 1.22, 32.06, 40.87, 6.87,
111.32679200172424,0.95, -0.05, 0.38, -8.36, 0.49, 0.92, 31.93, 39.79, 7.43,
111.43592643737793,0.93, 0.03, 0.37, -8.06, 0.00, -1.22, 31.95, 39.87, 7.03,
111.54600691795349,0.94, 0.01, 0.36, 1.71, 1.89, 2.93, 32.21, 39.79, 7.15,
111.65595579147339,0.94, 0.01, 0.36, 4.33, 1.89, 0.85, 32.82, 40.66, 7.02,
111.76440691947937,0.93, 0.02, 0.36, 9.52, 3.36, 3.48, 32.20, 39.48, 7.71,
111.87476682662964,0.95, -0.03, 0.35, 1.34, 5.37, -0.61, 33.01, 39.94, 8.48,
111.98533487319946,0.95, -0.00, 0.32, -6.65, 4.46, -4.21, 32.45, 40.20, 8.13,
112.09504222869873,0.97, -0.02, 0.32, -10.19, 2.38, -4.58, 32.97, 40.25, 9.27,
112.20482182502747,0.95, -0.01, 0.31, -8.79, -2.81, -1.46, 32.57, 39.45, 8.73,
112.31446409225464,0.94, -0.01, 0.28, -2.32, -4.33, 0.92, 32.71, 39.93, 6.63,
112.4245331287384,0.96, -0.00, 0.33, -1.16, -7.26, 1.40, 32.04, 39.27, 7.64,
112.53384590148926,0.90, 0.03, 0.38, 3.72, -3.17, 1.71, 32.28, 39.89, 7.62,
112.64342975616455,0.94, 0.01, 0.36, 8.73, -2.87, 2.08, 32.32, 39.27, 6.86,
112.75358605384827,0.91, 0.01, 0.36, 9.64, -1.10, 0.31, 32.42, 39.56, 7.81,
112.86394238471985,0.92, -0.03, 0.32, 5.80, 3.54, -2.08, 32.52, 39.50, 7.47,
112.97313141822815,0.95, -0.02, 0.35, -2.93, 3.54, -3.54, 32.68, 40.01, 8.51,
113.08297038078308,0.94, -0.01, 0.35, -5.74, 2.56, -1.46, 32.46, 39.95, 7.19,
113.19287824630737,0.95, -0.02, 0.34, -7.20, 1.46, -2.50, 31.98, 39.43, 7.75,
113.30113458633423,0.94, -0.01, 0.33, -6.04, 0.37, -2.38, 32.25, 39.59, 7.13,
113.41115856170654,0.94, -0.01, 0.32, -3.17, 0.79, -1.83, 31.96, 39.72, 6.76,
113.52161240577698,0.96, -0.01, 0.33, -2.93, 1.10, -1.77, 32.64, 39.71, 7.24,
113.63197040557861,0.94, -0.00, 0.32, -1.28, -0.37, -1.46, 32.34, 40.21, 6.67,
113.74130630493164,0.95, -0.01, 0.33, 1.10, -0.37, -1.04, 32.57, 40.27, 7.24,
113.85177159309387,0.94, -0.01, 0.33, 0.49, -0.49, -2.14, 31.93, 39.82, 8.35,
113.96024942398071,0.95, -0.04, 0.33, -1.53, -1.16, -1.53, 32.09, 40.59, 6.64,
114.07096242904663,0.94, -0.02, 0.34, -0.67, -2.26, -0.31, 32.42, 40.23, 7.71,
114.18015027046204,0.93, -0.02, 0.33, -1.77, -0.92, 1.04, 32.42, 40.36, 7.82,
114.29050922393799,0.93, -0.01, 0.33, -1.46, -1.04, 0.49, 32.68, 40.22, 7.56,
114.40078568458557,0.94, -0.01, 0.33, -2.69, -2.44, 1.34, 32.50, 39.15, 7.97,
114.51016211509705,0.95, 0.01, 0.33, -2.14, -1.34, -0.55, 32.81, 39.18, 7.60,
114.62100577354431,0.92, -0.01, 0.34, -0.43, -0.98, 0.61, 32.69, 39.83, 7.08,
114.73095083236694,0.94, 0.00, 0.34, 0.43, 0.00, 0.67, 32.52, 39.12, 6.29,
114.83994436264038,0.94, -0.00, 0.33, 1.40, -1.10, 0.37, 32.52, 39.38, 7.02,
114.95003581047058,0.93, 0.01, 0.34, 0.67, -0.61, -0.79, 31.93, 39.11, 7.46,
115.05903124809265,0.94, -0.00, 0.33, -0.85, -0.18, -0.61, 32.31, 39.87, 7.46,
115.16770267486572,0.93, -0.00, 0.33, -0.37, -1.28, -1.34, 32.37, 39.51, 7.02,
115.2765519618988,0.94, 0.00, 0.33, -2.38, -0.18, -0.49, 32.89, 39.21, 6.92,
115.38603472709656,0.95, 0.00, 0.34, -0.24, -0.73, -0.12, 32.10, 39.71, 7.63,
115.49399018287659,0.94, 0.00, 0.33, 0.37, -0.98, -0.18, 32.23, 39.32, 7.90,
115.60469055175781,0.94, 0.00, 0.34, 0.00, -0.61, -1.04, 31.97, 39.00, 6.70,
115.71362471580505,0.93, -0.00, 0.32, 1.40, -0.73, -1.28, 32.68, 39.75, 7.51,
115.82329320907593,0.94, 0.00, 0.34, -0.24, 0.37, -0.85, 32.37, 39.44, 7.29,
115.93207693099976,0.95, 0.00, 0.33, 1.10, -0.24, -1.04, 32.68, 39.06, 7.46,
116.0413830280304,0.94, 0.00, 0.33, 0.18, -0.18, 0.00, 32.67, 39.43, 7.82,
116.15087532997131,0.94, -0.00, 0.34, 0.18, -0.49, -0.43, 32.74, 39.23, 7.32,
116.259108543396,0.94, 0.00, 0.33, 2.99, 2.87, -1.89, 33.14, 38.93, 7.04,
116.36893248558044,0.95, 0.01, 0.32, 3.60, 1.95, -0.67, 32.67, 39.51, 7.67,
116.47803854942322,0.94, -0.01, 0.31, 3.11, 0.61, 0.00, 32.73, 39.59, 8.18,
116.58688807487488,0.93, -0.03, 0.30, 0.49, -0.55, -1.22, 32.46, 39.20, 7.82,
116.69610047340393,0.96, -0.01, 0.31, -1.77, 1.95, -2.44, 32.46, 40.09, 8.39,
116.80692219734192,0.96, -0.02, 0.31, -2.44, 0.43, -1.71, 32.51, 39.42, 8.24,
116.91496539115906,0.94, -0.01, 0.31, 0.55, -0.12, 0.24, 32.71, 39.94, 8.33,
117.02483081817627,0.95, -0.02, 0.31, -0.31, -1.04, -1.04, 32.68, 39.95, 7.85,
117.13305687904358,0.95, -0.01, 0.31, -0.12, -0.92, -0.61, 32.78, 40.27, 7.64,
117.24359488487244,0.95, -0.02, 0.28, -0.12, -0.49, 0.37, 33.36, 40.41, 7.21,
117.35296559333801,0.96, -0.02, 0.32, -3.17, 1.22, 1.10, 33.29, 39.59, 8.37,
117.46107196807861,0.94, -0.01, 0.30, -4.03, 0.24, 0.18, 33.04, 39.42, 7.73,
117.57136845588684,0.96, -0.00, 0.31, -2.69, -0.43, -0.49, 32.81, 39.39, 8.11,
117.68195724487305,0.95, 0.00, 0.30, -1.16, -0.79, 0.00, 33.29, 40.16, 8.15,
117.79066634178162,0.95, -0.01, 0.26, -0.31, 0.55, -0.49, 33.58, 39.38, 7.67,
117.90092945098877,0.97, -0.00, 0.31, 0.24, -0.18, -0.06, 33.20, 39.51, 7.65,
118.01045036315918,0.95, 0.00, 0.28, 0.37, -0.92, 0.00, 33.83, 39.83, 9.18,
118.12056827545166,0.96, -0.00, 0.31, 0.49, -2.50, -1.40, 33.50, 39.47, 8.23,
118.23040008544922,0.95, -0.00, 0.32, 0.55, -2.26, -0.24, 33.28, 39.23, 9.53,
118.3406114578247,0.94, 0.00, 0.33, -2.26, -1.46, 0.61, 33.13, 39.79, 7.06,
118.45027804374695,0.94, -0.01, 0.31, -1.22, -2.08, -0.37, 33.30, 39.79, 7.79,
118.56044268608093,0.94, -0.00, 0.31, -1.46, -0.98, 0.18, 33.02, 39.09, 8.33,
118.67061042785645,0.94, 0.00, 0.31, -1.95, 0.43, -0.55, 33.00, 39.27, 7.98,
118.78018498420715,0.95, -0.00, 0.31, -3.60, -0.24, -0.12, 33.35, 39.28, 6.95,
118.8908314704895,0.94, 0.02, 0.31, 0.37, -1.34, -1.46, 33.20, 38.90, 6.95,
119.0002326965332,0.97, 0.03, 0.32, 1.28, 0.79, -1.34, 33.20, 38.84, 6.88,
119.11099410057068,0.96, -0.02, 0.31, -0.98, -6.41, -3.36, 33.00, 39.06, 7.57,
119.2203278541565,0.91, 0.02, 0.34, 0.37, 0.85, -3.60, 32.78, 39.17, 6.56,
119.32968497276306,0.97, -0.03, 0.33, 4.52, 1.59, -0.31, 32.68, 39.54, 7.95,
119.44069242477417,0.94, -0.02, 0.32, -4.21, -4.03, -0.06, 32.62, 39.43, 7.93,
119.55016994476318,0.97, 0.00, 0.32, -1.77, 0.98, -1.46, 32.50, 38.88, 7.12,
119.65972805023193,0.96, -0.03, 0.32, -3.78, -3.72, 2.14, 33.13, 38.87, 7.76,
119.7695574760437,0.92, 0.01, 0.32, -2.50, -2.81, -0.37, 33.09, 38.87, 7.39,
119.87943124771118,0.97, -0.01, 0.29, -0.24, 0.31, -2.26, 32.98, 38.96, 6.82,
119.99191904067993,0.91, -0.04, 0.34, 1.40, -4.88, 3.48, 33.23, 38.81, 7.23,
120.10176587104797,0.96, 0.01, 0.35, -0.24, -0.18, -0.73, 32.73, 38.67, 6.80,
120.21047925949097,0.94, 0.08, 0.34, 7.63, 0.00, -6.71, 32.23, 38.73, 6.95,
120.32203555107117,0.93, -0.03, 0.35, 8.00, 1.10, 0.43, 32.68, 38.60, 7.86,
120.43157982826233,0.94, -0.06, 0.38, 0.06, 1.71, -1.10, 33.00, 39.22, 7.68,
120.54290652275085,0.94, -0.01, 0.33, -1.71, -0.92, -3.05, 32.43, 39.84, 8.56,
120.65248274803162,0.94, -0.03, 0.33, -4.09, -0.73, -0.79, 32.59, 40.21, 8.20,
120.76274251937866,0.94, -0.02, 0.33, -4.82, 0.24, -1.22, 32.79, 39.71, 8.75,
120.87291765213013,0.95, -0.01, 0.33, -2.08, 0.49, -0.37, 32.36, 39.54, 7.71,
120.98364520072937,0.95, -0.00, 0.32, 0.24, -0.61, 1.34, 31.96, 39.33, 8.37,
121.09355401992798,0.94, -0.01, 0.32, 0.49, -2.01, 0.79, 32.26, 39.43, 8.01,
121.20382642745972,0.95, -0.01, 0.33, 0.98, -1.04, 1.16, 32.75, 39.47, 8.90,
121.3132677078247,0.95, -0.01, 0.34, -2.08, -1.89, 0.24, 32.71, 39.34, 7.69,
121.42307782173157,0.94, -0.01, 0.34, -1.83, -1.83, -0.55, 32.51, 39.72, 7.24,
121.53357458114624,0.93, -0.01, 0.33, 0.18, -1.89, -0.73, 32.85, 39.09, 7.48,
121.6450617313385,0.94, -0.00, 0.34, -2.87, -0.67, -1.46, 33.07, 40.03, 6.68,
121.75569343566895,0.94, -0.01, 0.34, -0.31, -0.73, -0.55, 32.74, 39.29, 7.78,
121.86465573310852,0.94, -0.00, 0.34, -0.12, -0.61, -0.18, 33.17, 39.51, 7.40,
121.97524642944336,0.94, -0.01, 0.34, 0.49, -0.06, -0.49, 32.64, 39.44, 6.52,
122.0860333442688,0.94, -0.01, 0.34, 2.01, -0.31, -0.67, 32.81, 39.34, 7.41,
122.19529008865356,0.94, -0.00, 0.33, 0.31, -0.73, -0.37, 32.67, 39.51, 7.45,
122.30526876449585,0.94, -0.01, 0.34, -0.24, -1.59, -0.92, 32.95, 39.61, 8.01,
122.41586661338806,0.94, -0.01, 0.34, 0.00, -0.37, -0.49, 33.28, 39.84, 8.18,
122.52605390548706,0.94, -0.01, 0.34, 0.37, 0.18, -1.34, 32.92, 39.22, 6.36,
122.63586354255676,0.94, -0.01, 0.32, 1.65, 1.59, -0.49, 32.75, 38.81, 6.88,
122.74543929100037,0.93, -0.01, 0.32, 0.55, -0.06, -0.31, 32.97, 38.96, 7.31,
122.8557333946228,0.94, -0.01, 0.33, 0.31, -0.98, -0.12, 32.59, 39.49, 6.69,
122.96411442756653,0.94, -0.01, 0.33, -0.18, -2.14, -0.79, 32.60, 39.62, 6.92,
123.07354760169983,0.94, -0.01, 0.34, -1.04, -1.83, -0.98, 32.75, 39.29, 7.15,
123.18354153633118,0.94, -0.02, 0.34, -0.31, -0.43, -0.98, 32.06, 39.79, 6.65,
123.2939715385437,0.94, -0.01, 0.33, -1.46, -0.98, -1.28, 32.19, 39.70, 7.96,
123.40321850776672,0.94, -0.01, 0.34, -0.98, -1.34, -0.31, 32.86, 39.34, 8.01,
123.51329255104065,0.94, -0.00, 0.34, -0.85, -1.16, -0.24, 33.02, 39.42, 7.82,
123.62279510498047,0.94, -0.01, 0.34, 0.37, -0.61, -0.43, 32.67, 39.53, 7.04,
123.73486280441284,0.94, -0.00, 0.33, 3.05, -0.98, -1.28, 32.28, 39.29, 7.18,
123.84446358680725,0.94, -0.01, 0.34, 1.10, -0.79, -1.16, 32.12, 39.75, 8.02,
123.95442724227905,0.95, -0.02, 0.34, 0.43, -1.46, -1.28, 32.42, 40.59, 7.65,
124.06416344642639,0.94, -0.01, 0.35, -0.98, -2.14, -0.73, 32.35, 39.67, 7.75,
124.17313265800476,0.94, -0.01, 0.35, 1.53, -1.46, 0.24, 32.68, 39.60, 6.45,
124.2838842868805,0.94, -0.00, 0.34, 0.79, 0.73, 0.55, 32.29, 39.88, 6.49,
124.39356660842896,0.92, -0.02, 0.34, -0.43, -0.24, -0.61, 32.87, 39.59, 8.26,
124.50377225875854,0.93, -0.02, 0.34, -1.22, 0.31, -1.22, 32.02, 40.27, 7.07,
124.61394309997559,0.93, -0.01, 0.33, -0.55, 1.16, -1.04, 32.57, 40.09, 6.84,
124.72324180603027,0.94, -0.02, 0.34, -0.61, 1.46, 0.24, 32.01, 40.34, 7.65,
124.83384013175964,0.96, -0.01, 0.33, -4.09, 1.34, 0.79, 32.09, 40.37, 6.81,
124.94223189353943,0.94, -0.01, 0.33, -0.79, -0.73, 0.06, 32.23, 40.14, 8.50,
125.05286836624146,0.95, -0.02, 0.33, 0.00, -0.79, -0.49, 32.95, 40.77, 7.39,
125.1630380153656,0.94, -0.01, 0.33, -0.79, -0.18, -1.04, 32.71, 40.03, 8.15,
125.27184867858887,0.94, -0.01, 0.33, -0.55, 0.06, -1.16, 32.07, 40.43, 8.23,
125.38147854804993,0.95, -0.01, 0.34, -2.62, -0.06, -0.92, 32.65, 40.67, 8.51,
125.49056792259216,0.95, -0.02, 0.33, -0.49, -0.12, -1.34, 32.19, 40.45, 7.67,
125.6012237071991,0.95, -0.01, 0.33, 0.92, -0.73, 0.43, 32.20, 40.60, 7.40,
125.71161961555481,0.94, -0.01, 0.34, 0.61, -1.65, -0.06, 32.62, 40.52, 7.89,
125.82213044166565,0.94, -0.02, 0.33, 0.12, -1.28, -1.10, 32.30, 40.01, 8.17,
125.9324963092804,0.93, -0.02, 0.37, -1.95, -0.49, -1.04, 32.36, 40.47, 7.58,
126.04253625869751,0.94, -0.02, 0.33, -0.06, -1.34, -1.34, 32.03, 40.69, 8.07,
126.15215992927551,0.94, -0.02, 0.33, 0.00, -1.16, 0.06, 32.78, 40.95, 7.12,
126.26257228851318,0.93, -0.02, 0.33, -0.18, -1.40, 0.67, 32.46, 40.58, 7.32,
126.3726487159729,0.93, -0.02, 0.33, 0.06, -2.26, 1.28, 32.47, 40.71, 7.42,
126.48122072219849,0.94, -0.02, 0.39, -1.95, -0.12, 0.73, 32.57, 40.36, 7.91,
126.59175229072571,0.94, -0.01, 0.34, -0.24, -1.34, -0.43, 32.82, 40.10, 6.96,
126.70173287391663,0.94, -0.01, 0.34, -0.06, -0.85, -0.73, 32.63, 39.97, 7.35,
126.81242513656616,0.94, -0.01, 0.34, -0.73, -0.67, -1.53, 32.47, 40.16, 7.29,
126.9228093624115,0.94, -0.02, 0.33, -0.92, -0.24, -2.08, 31.97, 39.95, 6.76,
127.03286337852478,0.94, -0.02, 0.36, -1.28, 0.85, -2.14, 32.45, 40.39, 7.12,
127.14254260063171,0.95, -0.02, 0.32, 1.34, 0.24, -1.65, 33.24, 40.52, 7.64,
127.25303673744202,0.94, -0.02, 0.33, 2.44, -0.06, -1.16, 32.03, 40.80, 7.40,
127.36233711242676,0.94, -0.03, 0.33, 1.95, -0.43, -1.04, 32.26, 40.64, 8.02,
127.4719033241272,0.94, -0.04, 0.34, 1.40, -0.79, -1.04, 32.02, 40.70, 8.15,
127.58080959320068,0.94, -0.04, 0.37, -1.34, -0.85, -1.28, 32.23, 40.28, 7.29,
127.69092559814453,0.93, -0.04, 0.33, -0.24, -2.38, -0.92, 32.54, 40.15, 7.98,
127.79980611801147,0.94, -0.04, 0.34, -0.79, -1.46, -0.43, 32.30, 40.61, 7.92,
127.91008138656616,0.93, -0.03, 0.34, -1.10, -0.06, 0.24, 32.80, 40.52, 9.06,
128.02016520500183,0.94, -0.04, 0.33, -1.28, 0.00, 0.18, 32.24, 40.36, 7.78,
128.13078236579895,0.95, -0.02, 0.33, -4.64, 0.98, 1.40, 32.47, 40.32, 7.95,
128.2405047416687,0.94, -0.03, 0.33, -2.75, -1.28, 1.04, 32.37, 40.65, 7.47,
128.35099148750305,0.95, -0.02, 0.34, -1.28, -1.22, 0.98, 32.21, 40.36, 6.97,
128.46062994003296,0.94, -0.02, 0.34, -2.08, -0.85, -0.43, 32.34, 40.60, 7.18,
128.5706923007965,0.94, -0.02, 0.34, -0.73, -0.24, -0.79, 32.58, 40.45, 7.80,
128.6806161403656,0.95, -0.00, 0.32, 0.61, -0.31, -0.98, 32.76, 39.97, 7.50,
128.78999519348145,0.94, -0.03, 0.33, 0.85, -0.06, -1.53, 31.60, 39.98, 7.91,
128.90042901039124,0.95, -0.03, 0.33, 1.83, -0.18, -1.22, 33.00, 40.98, 7.19,
129.01098895072937,0.94, -0.02, 0.33, 1.04, -0.49, -0.92, 32.70, 40.87, 7.89,
129.12106156349182,0.94, -0.03, 0.34, 0.79, -1.34, -0.85, 32.17, 40.83, 7.68,
129.2305257320404,0.94, -0.02, 0.33, 0.49, -1.22, -0.43, 32.09, 41.00, 7.20,
129.34025311470032,0.93, -0.03, 0.33, -0.55, -1.83, -0.43, 31.85, 40.98, 7.71,
129.450012922287,0.94, -0.04, 0.34, -0.61, -1.59, 0.06, 31.73, 40.65, 7.54,
129.55920314788818,0.93, -0.03, 0.34, -1.16, -1.65, -0.18, 31.88, 40.60, 7.70,
129.6697928905487,0.94, -0.03, 0.34, -1.04, -0.18, -1.04, 32.41, 40.64, 7.60,
129.7781536579132,0.94, -0.02, 0.33, 0.61, 0.18, -0.37, 32.14, 40.31, 7.21,
129.88837313652039,0.94, -0.03, 0.33, -1.95, -0.55, 0.00, 32.46, 40.72, 7.54,
129.99846506118774,0.94, -0.03, 0.34, 0.49, -1.04, -0.24, 32.26, 41.35, 7.87,
130.10846400260925,0.93, -0.02, 0.34, -0.06, -1.16, -0.73, 32.62, 40.81, 7.81,
130.21850419044495,0.94, -0.03, 0.34, -0.18, -0.55, -1.28, 32.31, 41.10, 7.68,
130.32858872413635,0.94, -0.03, 0.33, 1.46, -0.61, -1.10, 32.09, 40.87, 7.80,
130.43743872642517,0.94, -0.03, 0.34, -0.79, -0.43, -0.92, 32.36, 40.58, 7.25,
130.5473849773407,0.95, -0.03, 0.34, 0.37, -0.37, -0.24, 32.01, 40.55, 7.18,
130.65746688842773,0.94, -0.03, 0.34, 0.67, -1.28, 0.00, 32.53, 40.80, 7.39,
130.76644039154053,0.94, -0.04, 0.35, 0.12, -2.50, -0.67, 31.87, 40.45, 7.87,
130.87639713287354,0.94, -0.02, 0.35, 0.73, 0.06, -1.28, 31.73, 41.41, 7.93,
130.98804354667664,0.93, -0.03, 0.34, -0.12, -1.46, -1.40, 31.62, 40.65, 7.65,
131.09795832633972,0.94, -0.05, 0.35, 0.43, -0.79, -1.22, 31.74, 40.86, 6.80,
131.20802330970764,0.92, -0.04, 0.35, 0.00, -0.31, -0.37, 32.28, 41.04, 7.58,
131.31786942481995,0.93, -0.03, 0.34, 0.98, -0.12, -1.53, 31.98, 40.78, 7.92,
131.4274959564209,0.94, -0.04, 0.33, 1.40, 0.61, 0.18, 31.85, 41.26, 8.48,
131.537859916687,0.94, -0.04, 0.35, -1.89, -1.10, 0.67, 32.07, 41.06, 8.19,
131.64785885810852,0.94, -0.04, 0.35, -1.83, -1.83, 0.00, 31.59, 40.65, 8.00,
131.75879955291748,0.93, -0.03, 0.35, -2.14, -2.50, 0.00, 32.08, 41.17, 7.10,
131.86926460266113,0.93, -0.03, 0.36, -2.26, -1.95, -0.49, 31.85, 41.25, 7.48,
131.97985005378723,0.93, -0.02, 0.35, -0.06, -0.98, -0.43, 32.13, 40.41, 7.34,
132.08875155448914,0.93, -0.03, 0.36, -0.67, -0.37, -0.43, 31.90, 40.73, 6.92,
132.19955587387085,0.94, -0.03, 0.35, 0.67, 0.12, -1.34, 32.03, 40.98, 7.46,
132.30988883972168,0.93, -0.03, 0.36, 0.61, 0.37, -0.85, 31.73, 40.87, 6.87,
132.41798853874207,0.93, -0.04, 0.36, 0.55, -0.06, -1.04, 32.24, 41.42, 6.97,
132.52896356582642,0.94, -0.03, 0.35, 2.93, 0.24, -0.79, 31.97, 40.98, 6.57,
132.63884854316711,0.93, -0.04, 0.35, -0.24, -0.67, -0.37, 32.50, 41.32, 6.58,
132.74895548820496,0.94, -0.04, 0.35, -1.40, -1.16, 0.61, 32.19, 41.00, 8.56,
132.8582799434662,0.93, -0.03, 0.35, -1.77, -1.28, 0.61, 31.59, 40.97, 8.17,
132.96888542175293,0.93, -0.03, 0.34, -0.37, -1.40, -0.61, 31.62, 40.93, 7.90,
133.07810354232788,0.94, -0.04, 0.35, -0.24, -0.79, -0.31, 32.03, 40.55, 8.72,
133.18979215621948,0.93, -0.03, 0.35, -1.95, -0.55, -0.24, 31.99, 40.93, 7.73,
133.29970955848694,0.94, -0.03, 0.35, 0.06, 0.43, -0.67, 32.01, 40.73, 7.14,
133.40980863571167,0.94, -0.03, 0.35, 0.18, 0.43, -1.16, 32.26, 43.44, 7.92,
133.51965045928955,0.94, -0.03, 0.35, 0.18, 0.73, -1.22, 31.95, 40.99, 8.52,
133.6288378238678,0.94, -0.03, 0.34, 1.40, -0.12, -1.16, 32.42, 41.02, 8.12,
133.73874402046204,0.93, -0.03, 0.34, -0.49, -0.37, -0.85, 31.84, 40.98, 7.32,
133.84738659858704,0.94, -0.04, 0.34, 0.24, -0.43, -1.04, 31.13, 41.31, 8.12,
133.96039175987244,0.94, -0.04, 0.35, -0.06, -1.40, -0.43, 31.57, 41.28, 7.76,
134.0707983970642,0.94, -0.04, 0.36, 0.00, -1.46, -1.34, 31.62, 41.39, 7.68,
134.18011593818665,0.94, -0.05, 0.35, 0.73, -1.10, -0.79, 31.79, 41.56, 7.70,
134.29087615013123,0.93, -0.04, 0.35, 0.06, -0.61, -0.12, 32.40, 40.98, 7.64,
134.4006884098053,0.93, -0.04, 0.35, -0.67, -1.10, -0.06, 31.75, 41.46, 7.20,
134.51115489006042,0.93, -0.04, 0.35, -0.79, -0.18, -0.06, 31.81, 41.20, 7.54,
134.62171816825867,0.93, -0.03, 0.37, -0.73, -0.12, -0.92, 31.75, 40.75, 7.76,
134.73126530647278,0.95, -0.04, 0.36, -1.95, 0.31, -0.24, 31.41, 41.50, 8.22,
134.84183931350708,0.93, -0.04, 0.35, -1.16, -0.49, 1.04, 31.41, 41.17, 7.15,
134.95147037506104,0.94, -0.03, 0.35, -0.92, -1.16, -0.37, 31.92, 40.75, 7.97,
135.06136965751648,0.94, -0.03, 0.35, -0.79, -1.22, -0.06, 31.86, 41.21, 7.85,
135.1728811264038,0.93, -0.04, 0.32, -0.06, -0.37, -0.31, 31.91, 40.99, 5.97,
135.28229188919067,0.94, -0.03, 0.36, -0.85, 0.12, -0.37, 31.88, 40.89, 6.68,
135.3924582004547,0.93, -0.03, 0.34, 0.12, 0.31, 0.92, 32.03, 41.09, 7.14,
135.50290703773499,0.94, -0.03, 0.35, -0.43, -0.18, 0.18, 31.85, 40.55, 7.54,
135.6123607158661,0.94, -0.02, 0.35, -1.04, -1.34, 0.98, 31.70, 40.64, 6.76,
135.7225239276886,0.93, -0.03, 0.34, -1.34, -0.67, -0.37, 32.12, 40.38, 7.21,
135.83222222328186,0.95, -0.03, 0.35, -2.01, -2.32, -0.06, 31.99, 40.98, 7.18,
135.94275403022766,0.93, -0.01, 0.35, -2.32, -1.89, 0.06, 31.74, 40.77, 6.20,
136.05145645141602,0.93, -0.01, 0.35, 0.18, -2.01, -0.55, 32.48, 40.09, 7.30,
136.16372966766357,0.93, -0.02, 0.36, -0.18, 0.18, -1.22, 31.87, 40.44, 6.91,
136.27358984947205,0.92, -0.03, 0.39, -2.08, 2.38, -1.40, 31.73, 40.21, 7.07,
136.38387989997864,0.94, -0.02, 0.34, -0.98, 1.59, -1.10, 32.34, 40.55, 6.41,
136.49317717552185,0.94, -0.01, 0.34, 0.55, 2.26, -0.31, 31.57, 40.97, 6.35,
136.60233640670776,0.94, -0.02, 0.34, 0.79, 1.16, -0.37, 31.68, 40.75, 7.43,
136.71205878257751,0.94, -0.02, 0.34, 0.49, 2.08, -0.37, 31.79, 40.84, 7.60,
136.82200956344604,0.95, -0.02, 0.33, -1.77, -0.31, -0.12, 32.53, 40.41, 7.91,
136.93102073669434,0.94, -0.02, 0.33, -0.06, -1.77, -1.10, 32.51, 40.77, 8.53,
137.0411021709442,0.94, -0.02, 0.34, -0.43, -2.14, -0.12, 31.80, 40.50, 7.95,
137.15188884735107,0.94, -0.02, 0.35, -0.73, -2.75, -0.06, 32.09, 40.60, 7.93,
137.2619230747223,0.94, -0.06, 0.34, -1.95, -2.32, 0.67, 32.13, 40.65, 7.71,
137.37106585502625,0.94, -0.01, 0.34, -3.91, -2.32, 2.01, 31.87, 39.99, 7.70,
137.48159956932068,0.93, -0.01, 0.34, -6.84, -3.78, 2.93, 32.39, 40.26, 7.45,
137.5912115573883,0.92, -0.00, 0.34, -9.46, -3.36, 2.87, 32.42, 39.55, 5.99,
137.70144391059875,0.92, 0.04, 0.37, -3.05, 0.43, 1.22, 32.58, 39.32, 6.02,
137.81148719787598,0.94, 0.04, 0.32, 6.71, 2.01, -2.62, 33.29, 39.26, 6.37,
137.92163109779358,0.95, 0.01, 0.35, 9.77, 3.30, -2.44, 33.19, 39.25, 6.35,
138.03247809410095,0.94, -0.01, 0.34, 5.37, 1.22, -3.42, 32.43, 40.05, 7.45,
138.1422824859619,0.94, -0.01, 0.34, 2.44, -0.67, -2.99, 32.37, 39.93, 7.43,
138.25279688835144,0.94, -0.02, 0.34, 1.65, -1.83, -1.28, 31.99, 40.42, 7.80,
138.36291933059692,0.94, -0.02, 0.36, -1.04, -1.34, 0.37, 31.90, 40.42, 8.39,
138.47216653823853,0.93, -0.02, 0.35, 0.37, -0.67, -1.46, 31.69, 40.86, 7.75,
138.58226323127747,0.94, -0.01, 0.35, 1.77, 0.18, 0.67, 32.12, 40.78, 7.92,
138.69174909591675,0.94, -0.02, 0.35, 2.08, -0.43, -0.31, 32.21, 40.14, 7.80,
138.8012478351593,0.94, -0.02, 0.35, 0.61, 0.55, -1.46, 32.20, 40.63, 7.24,
138.91102695465088,0.93, -0.01, 0.34, 0.43, 0.06, -2.75, 32.14, 40.58, 7.91,
139.02157878875732,0.93, -0.04, 0.34, -1.22, -2.08, -3.72, 32.51, 40.56, 7.75,
139.13144493103027,0.94, -0.03, 0.34, 0.37, -1.83, -1.34, 31.97, 40.69, 8.23,
139.2412850856781,0.93, -0.04, 0.35, 0.43, -2.75, -0.31, 31.41, 41.81, 7.17,
139.35076451301575,0.93, -0.04, 0.37, 0.49, -2.62, 0.85, 31.49, 41.13, 6.96,
139.46031522750854,0.94, -0.04, 0.37, 0.67, 0.12, 1.53, 31.87, 41.37, 8.51,
139.5703320503235,0.93, -0.02, 0.35, 2.56, 0.31, 0.37, 31.85, 40.87, 7.90,
139.67936325073242,0.93, -0.04, 0.35, 3.23, 1.34, -0.98, 31.77, 40.72, 9.22,
139.78944993019104,0.94, -0.04, 0.35, -0.85, 2.81, 0.00, 31.97, 41.30, 8.30,
139.89968276023865,0.93, -0.04, 0.38, -1.71, 2.26, -2.08, 32.37, 41.35, 9.30,
140.00930643081665,0.94, -0.04, 0.34, -2.81, 0.37, -1.71, 32.20, 41.05, 8.48,
140.11900568008423,0.94, -0.03, 0.34, -2.26, 0.85, -0.37, 32.14, 40.87, 9.00,
140.22955441474915,0.94, -0.04, 0.34, -1.95, -0.24, 0.67, 32.04, 41.16, 8.70,
140.33984065055847,0.95, -0.02, 0.34, -3.85, -1.53, 1.40, 32.65, 41.35, 9.59,
140.45070934295654,0.94, -0.01, 0.34, -6.10, -1.83, 2.44, 32.70, 40.19, 8.46,
140.5602672100067,0.93, -0.02, 0.34, -4.46, -3.60, 0.92, 33.09, 40.42, 7.71,
140.67003202438354,0.94, -0.00, 0.34, -5.25, -0.18, 1.16, 33.28, 40.26, 6.43,
140.77990102767944,0.93, -0.00, 0.35, -3.05, 1.83, -0.18, 32.80, 39.97, 6.91,
140.88960886001587,0.93, 0.00, 0.34, -0.31, 3.60, -0.37, 32.41, 40.16, 8.61,
140.99939823150635,0.92, -0.01, 0.32, 1.46, 5.92, -1.53, 33.09, 39.94, 7.29,
141.11182355880737,0.96, -0.02, 0.31, -4.58, 7.63, -2.69, 32.76, 40.00, 7.63,
141.22176575660706,0.97, -0.03, 0.30, -13.24, 6.04, 2.01, 33.11, 39.79, 7.45,
141.33237171173096,1.01, -0.00, 0.27, -14.16, -4.03, 2.44, 33.62, 38.92, 6.99,
141.44382572174072,0.94, 0.01, 0.27, -3.05, -4.03, 13.73, 33.46, 38.61, 7.18,
141.55310797691345,0.98, 0.11, 0.32, 8.42, 2.99, 15.99, 34.23, 37.43, 6.98,
141.6637887954712,0.86, 0.12, 0.25, 13.55, 3.72, 16.48, 35.03, 36.40, 9.58,
141.77317333221436,0.97, 0.09, 0.27, 13.06, 7.87, -0.24, 35.73, 36.50, 10.66,
141.88196229934692,0.91, 0.11, 0.23, 5.55, 9.03, -3.91, 35.67, 36.79, 10.61,
