Time (s),Accel_X,Accel_Y,Accel_Z,Gyro_X,Gyro_Y,Gyro_Z,Mag_X,Mag_Y,Mag_Z
0.0,1.02, 0.10, -0.07, -15.08, 6.23, -16.17, 34.01, 17.93, 41.81,
0.0009984970092773438,1.32, -0.15, -0.03, -6.47, -16.72, -8.54, 34.48, 18.85, 41.17,
0.0019989013671875,0.77, -0.15, -0.13, -21.97, -15.99, -12.15, 35.88, 20.90, 39.97,
0.0019989013671875,1.02, -0.08, 0.01, -16.11, 0.92, 10.99, 35.22, 22.60, 40.09,
0.003506898880004883,0.90, -0.12, 0.05, -1.22, 8.18, 9.46, 35.82, 21.13, 39.50,
0.004518747329711914,0.90, -0.15, 0.03, -5.62, 4.33, -0.79, 34.63, 21.63, 40.05,
0.004518747329711914,1.13, -0.20, 0.03, -26.43, -0.85, 6.47, 34.62, 22.18, 40.83,
0.005517721176147461,1.14, 0.10, -0.04, -5.74, -15.93, 13.85, 34.17, 22.83, 39.78,
0.006516695022583008,0.95, 0.05, -0.14, 23.19, 11.78, -10.31, 34.95, 21.73, 38.93,
0.007516384124755859,0.84, 0.02, -0.00, 17.33, 0.18, -10.25, 34.75, 21.28, 39.11,
0.007516384124755859,0.96, -0.02, -0.00, 15.26, 17.94, -7.93, 33.35, 20.73, 40.64,
0.008518218994140625,0.97, -0.00, -0.08, 18.74, 13.92, -8.24, 32.19, 19.98, 42.46,
0.009519338607788086,1.29, -0.09, -0.05, 17.58, -13.79, -1.95, 32.69, 19.20, 43.03,
0.01061391830444336,0.83, -0.12, -0.15, -12.51, -18.62, -8.42, 33.29, 19.07, 42.75,
0.01061391830444336,1.11, -0.14, -0.07, -35.71, 16.97, 2.32, 33.89, 20.12, 41.56,
0.011614799499511719,0.83, -0.12, -0.00, -16.66, 1.77, 15.08, 33.73, 21.66, 40.72,
0.012612581253051758,0.89, -0.10, 0.02, -9.09, 5.25, 8.42, 33.31, 20.90, 41.55,
0.013627052307128906,1.13, -0.18, -0.02, -11.11, -0.98, 8.73, 33.58, 21.41, 42.15,
0.013627052307128906,1.36, 0.13, -0.03, -7.32, -15.99, 1.83, 33.79, 21.83, 40.36,
0.014611959457397461,0.80, 0.05, -0.21, 13.06, -9.58, -9.46, 34.68, 20.91, 40.95,
0.01562190055847168,0.95, -0.07, -0.00, 5.98, 3.60, -14.16, 33.39, 21.17, 40.73,
0.01656341552734375,0.90, -0.03, -0.01, 11.66, 14.47, -10.56, 33.36, 21.59, 42.08,
0.01656341552734375,0.97, 0.02, -0.04, 17.46, 14.59, -5.80, 32.29, 21.53, 42.53,
0.017518281936645508,1.21, -0.05, -0.01, 28.56, 2.01, -7.93, 32.12, 21.02, 43.02,
0.018566608428955078,0.93, -0.27, -0.18, 5.25, -21.12, -13.85, 33.13, 19.54, 42.96,
0.019613265991210938,0.98, -0.22, -0.17, -31.07, -0.37, 1.71, 33.90, 20.28, 42.19,
0.019613265991210938,0.87, -0.11, -0.01, -14.53, 0.00, 13.37, 34.28, 21.68, 41.50,
0.02061939239501953,0.88, -0.15, 0.04, -2.44, -4.09, 13.12, 34.14, 20.73, 40.94,
0.021611928939819336,1.04, -0.17, 0.01, -9.52, 0.37, 9.95, 34.28, 20.95, 39.56,
0.022623538970947266,1.32, 0.00, 0.02, -21.85, 1.46, 1.59, 33.61, 21.48, 40.91,
0.022623538970947266,0.83, -0.02, -0.14, 7.57, -7.87, 7.93, 34.70, 20.81, 40.41,
0.023607730865478516,1.07, -0.09, -0.10, 13.92, 18.49, -10.31, 34.78, 21.07, 40.71,
0.023607730865478516,0.83, 0.01, -0.03, 5.74, 13.67, -9.83, 33.72, 21.22, 41.99,
0.024612903594970703,0.96, -0.00, -0.04, 7.32, 13.55, -4.64, 32.50, 21.36, 42.76,
0.025620460510253906,1.14, 0.03, -0.13, 11.05, -8.85, -7.20, 32.24, 21.03, 43.75,
0.025620460510253906,1.35, -0.35, -0.08, 9.77, -18.92, -10.01, 32.34, 20.70, 42.15,
0.02661728858947754,0.83, -0.18, -0.20, -21.24, -22.64, -2.93, 34.36, 21.50, 40.60,
0.02661728858947754,0.96, -0.16, 0.05, -5.00, -18.74, 1.22, 34.90, 22.99, 39.56,
0.02761387825012207,0.92, -0.14, 0.08, -6.71, 5.92, 8.24, 35.62, 22.81, 39.58,
0.028609275817871094,0.90, -0.16, 0.07, -4.39, 9.46, 3.60, 34.81, 22.71, 39.94,
0.028883934020996094,1.28, -0.15, 0.00, -22.89, 27.28, 4.76, 33.69, 22.66, 41.38,
0.029448509216308594,0.88, -0.09, -0.11, -22.16, -6.04, 6.41, 32.80, 23.47, 40.88,
0.02995133399963379,1.10, -0.10, -0.19, 23.74, 30.70, -10.74, 32.69, 24.26, 41.89,
0.030955076217651367,0.82, -0.01, -0.15, 31.86, -7.26, -11.84, 31.92, 24.22, 43.91,
0.030955076217651367,0.96, -0.08, -0.10, 1.40, 1.71, -5.62, 31.64, 23.71, 43.36,
0.03195500373840332,1.14, -0.09, -0.15, -3.36, -10.07, -5.92, 32.18, 24.15, 43.96,
0.03195500373840332,1.22, -0.47, -0.13, 3.05, -22.58, -10.74, 32.15, 23.36, 43.63,
0.033231496810913086,0.93, -0.23, -0.26, -33.33, -12.39, 17.70, 32.81, 24.43, 42.07,
0.03373432159423828,0.95, -0.12, 0.02, -8.12, -34.48, 12.15, 33.53, 25.28, 41.77,
0.03373432159423828,0.88, -0.09, 0.12, -21.97, 24.90, 10.44, 33.17, 24.57, 40.75,
0.03473830223083496,0.97, -0.17, -0.04, -13.18, 25.88, 10.07, 32.71, 25.31, 41.59,
0.035738229751586914,1.32, 0.08, -0.12, -10.25, 15.75, 3.72, 31.32, 25.01, 42.52,
0.035738229751586914,0.91, 0.04, -0.35, 3.72, -20.26, -1.16, 32.95, 24.04, 41.64,
0.03673815727233887,1.05, 0.01, -0.09, 24.05, 0.85, -18.80, 31.97, 23.68, 41.83,
0.03673815727233887,0.83, -0.16, -0.16, 0.55, 27.40, -2.08, 32.36, 23.08, 42.53,
0.03773832321166992,1.01, -0.00, -0.10, -1.10, 3.11, -7.69, 30.77, 22.96, 44.45,
0.03773832321166992,1.21, -0.02, -0.20, 18.19, -9.16, -8.79, 31.08, 23.45, 43.60,
0.03984999656677246,0.83, -0.10, -0.24, -7.14, -6.47, -3.97, 31.74, 22.96, 42.48,
0.03984999656677246,1.06, -0.07, -0.12, -18.92, 4.76, 1.83, 32.91, 22.88, 41.97,
0.04085516929626465,0.75, -0.12, -0.09, -15.81, -17.64, 7.32, 32.89, 23.96, 41.22,
0.0418548583984375,1.00, -0.12, -0.02, -6.59, 14.53, 0.43, 33.13, 24.54, 42.07,
0.04285478591918945,1.02, -0.19, -0.05, -1.77, -5.62, 6.90, 33.04, 24.62, 42.24,
0.043854713439941406,1.17, 0.14, 0.04, 14.16, -28.99, -0.31, 32.70, 23.67, 41.59,
0.04444551467895508,0.88, -0.02, -0.15, 35.71, 15.01, -18.92, 34.69, 22.96, 39.95,
0.045044660568237305,0.87, -0.04, -0.02, 9.28, -30.46, -10.80, 33.86, 22.69, 40.19,
0.0461430549621582,0.96, -0.11, 0.06, 4.70, 7.20, -13.92, 34.69, 22.79, 38.98,
0.04715776443481445,0.95, -0.09, -0.02, -10.56, -4.27, -1.04, 34.13, 23.00, 38.90,
0.04814624786376953,1.31, -0.27, 0.01, 11.41, -16.30, -8.30, 34.03, 24.35, 40.17,
0.04814624786376953,0.76, -0.22, -0.14, -25.33, -17.88, -5.92, 35.11, 25.63, 39.53,
0.04983115196228027,1.05, -0.23, 0.07, -13.00, 6.90, 3.78, 35.39, 26.31, 38.18,
0.04983115196228027,0.89, -0.18, 0.04, -11.11, 10.07, 6.90, 36.13, 27.31, 36.01,
0.05080842971801758,0.86, -0.19, 0.15, -4.33, 13.92, 5.68, 35.46, 26.79, 36.94,
0.05191779136657715,1.02, -0.23, 0.11, -11.66, 31.92, 15.81, 34.85, 26.45, 38.66,
0.05191779136657715,1.03, -0.06, -0.10, 3.05, -2.99, 8.54, 33.95, 25.72, 40.58,
0.05292797088623047,0.99, -0.10, -0.13, 39.73, 22.52, -12.45, 33.94, 25.34, 40.66,
0.05391430854797363,0.80, -0.06, -0.08, 5.07, -5.49, -4.58, 33.12, 25.29, 41.47,
0.05391430854797363,0.99, -0.10, 0.04, -5.37, 28.14, 0.85, 33.02, 24.33, 42.16,
0.05491900444030762,1.10, -0.02, -0.15, -0.49, -1.28, -3.97, 32.24, 24.99, 42.03,
0.05491900444030762,1.18, -0.34, -0.17, -2.56, -28.75, -0.49, 32.39, 24.79, 43.14,
0.055916547775268555,0.81, -0.17, -0.20, -14.10, -9.34, 6.77, 32.91, 25.00, 41.66,
0.055916547775268555,0.99, -0.15, -0.01, -3.97, 0.18, 2.20, 32.73, 25.26, 42.35,
0.056923866271972656,0.94, -0.13, -0.04, -1.28, 25.82, 5.49, 33.08, 25.31, 41.91,
0.05791735649108887,0.96, -0.16, -0.09, -0.24, 5.07, 2.44, 31.18, 25.23, 43.40,
0.05791735649108887,1.18, -0.17, -0.13, -14.47, 2.01, 1.95, 31.82, 24.62, 44.65,
0.05891847610473633,0.91, -0.08, -0.20, 5.37, -40.53, 3.36, 32.58, 24.90, 42.18,
0.05891847610473633,1.12, -0.15, -0.09, 33.81, 21.06, -17.33, 33.09, 23.65, 42.76,
0.060424089431762695,0.76, -0.07, -0.08, 8.67, -12.82, -1.53, 33.57, 24.05, 41.08,
0.060424089431762695,0.99, -0.07, -0.04, -8.24, 20.08, 4.09, 32.18, 23.08, 42.24,
0.0614316463470459,1.10, -0.04, -0.15, 2.62, 1.71, -2.50, 32.25, 23.43, 42.81,
0.0614316463470459,1.13, -0.34, -0.17, 3.30, -26.31, -10.74, 31.97, 22.94, 42.96,
0.062430620193481445,0.90, -0.24, -0.25, -16.11, -6.65, 5.68, 32.46, 24.50, 41.32,
0.06344485282897949,0.95, -0.12, -0.06, -17.64, -16.54, 11.23, 32.23, 25.61, 42.46,
0.06344485282897949,0.95, -0.14, -0.07, -3.60, 25.51, 5.74, 32.28, 25.42, 42.03,
0.06444954872131348,0.95, -0.20, -0.13, -4.58, 3.78, 6.84, 32.18, 24.79, 42.92,
0.06444954872131348,1.28, -0.07, -0.12, -9.83, -10.19, 3.72, 32.13, 24.56, 43.71,
0.0654449462890625,0.85, -0.00, -0.22, 1.89, -27.28, 0.06, 33.51, 23.85, 41.39,
0.0654449462890625,1.04, -0.18, -0.06, 19.29, 7.81, -14.40, 33.44, 23.08, 40.69,
0.06645846366882324,0.88, -0.09, -0.07, 13.67, 8.30, -0.55, 32.34, 23.28, 42.55,
0.06753396987915039,0.99, -0.02, -0.04, -1.95, 5.49, -4.64, 31.53, 23.52, 42.59,
0.06753396987915039,1.14, -0.07, -0.11, 13.43, -5.98, -8.79, 31.92, 23.39, 42.83,
0.06853580474853516,0.95, -0.25, -0.11, -15.99, -6.65, -8.24, 32.73, 23.85, 41.85,
0.06853580474853516,0.99, -0.25, -0.15, 0.73, -3.17, 8.73, 33.61, 24.26, 41.47,
0.06953740119934082,0.88, -0.14, -0.05, -9.34, -8.61, 14.53, 33.46, 24.12, 41.53,
0.06953740119934082,0.97, -0.13, 0.00, 0.67, 9.52, 2.44, 34.16, 23.88, 40.04,
0.07053112983703613,0.96, -0.17, 0.01, -8.61, 6.16, 8.85, 33.74, 23.36, 41.50,
0.07114005088806152,1.25, -0.10, -0.07, -8.97, -2.56, 0.55, 33.80, 23.54, 41.13,
0.07114005088806152,0.89, -0.10, -0.15, -0.24, -27.04, 1.89, 34.61, 23.12, 40.20,
0.0722496509552002,1.15, -0.11, -0.04, 26.86, 11.84, -20.81, 34.48, 22.97, 40.04,
0.0722496509552002,0.84, -0.11, -0.03, 14.65, -3.11, -5.25, 33.70, 23.67, 40.22,
0.07325124740600586,0.95, -0.03, -0.01, -3.36, 8.79, -0.79, 33.70, 23.72, 40.77,
0.07425236701965332,1.21, -0.11, -0.01, 23.01, -5.68, -7.26, 33.37, 22.46, 41.72,
0.07425236701965332,1.01, -0.29, -0.02, -10.25, -3.30, -12.02, 34.39, 22.96, 41.58,
0.07425236701965332,0.91, -0.30, -0.16, -9.09, -9.70, 2.50, 34.81, 24.52, 39.60,
0.07585453987121582,0.91, -0.14, 0.00, -2.32, -7.51, 14.77, 34.22, 24.69, 40.59,
0.07585453987121582,0.97, -0.16, 0.04, 4.76, 13.18, 11.96, 35.49, 23.52, 39.53,
0.07696175575256348,0.98, -0.21, 0.09, -0.61, 16.54, 6.23, 35.16, 22.89, 40.22,
0.07696175575256348,1.20, -0.08, -0.02, -29.24, -0.67, 0.12, 34.03, 23.66, 41.46,
0.07796049118041992,0.92, -0.01, -0.11, 13.92, -26.79, 1.46, 34.73, 23.24, 39.67,
0.07896184921264648,1.14, -0.11, -0.05, 31.80, 15.75, -18.55, 35.03, 22.62, 40.38,
0.07896184921264648,0.79, -0.05, -0.02, 14.83, -6.04, -4.94, 34.91, 21.68, 40.83,
0.07996845245361328,0.98, -0.07, 0.01, 3.66, 21.12, -8.36, 33.24, 21.64, 41.70,
0.07996845245361328,1.16, -0.06, -0.10, 18.98, -21.12, -9.46, 33.44, 21.77, 41.76,
0.08096480369567871,1.21, -0.45, -0.03, 5.31, -7.14, -7.75, 34.58, 21.15, 42.48,
0.08096480369567871,0.78, -0.29, -0.19, -16.11, -16.48, -6.16, 35.12, 22.97, 39.64,
0.08196520805358887,0.94, -0.17, 0.04, -16.11, -17.58, -5.80, 34.70, 25.15, 40.31,
0.08290648460388184,0.92, -0.19, 0.09, 3.91, 7.75, 6.59, 35.21, 24.79, 38.72,
0.08290648460388184,0.75, -0.38, 0.08, -22.16, 28.81, 17.03, 35.38, 24.43, 39.60,
0.08396434783935547,1.11, -0.27, 0.07, -26.49, 12.51, 15.75, 34.61, 24.60, 40.33,
0.08396434783935547,1.08, 0.00, -0.02, 4.03, -6.65, 6.41, 33.75, 23.75, 41.41,
0.0849614143371582,0.90, -0.09, -0.23, 22.83, 5.80, -5.55, 34.96, 23.56, 39.95,
0.0849614143371582,0.96, -0.05, -0.04, -4.58, 6.53, -10.19, 33.78, 23.40, 41.20,
0.08596563339233398,0.96, -0.10, 0.00, 1.71, 2.50, -4.33, 33.69, 23.17, 40.01,
0.08696174621582031,0.94, -0.06, -0.06, -6.35, -6.53, -0.49, 33.48, 23.44, 40.66,
0.08696174621582031,1.29, -0.10, 0.08, 27.89, -13.18, -4.33, 33.86, 23.56, 40.66,
0.08796548843383789,0.77, -0.24, -0.21, -16.85, -18.55, -3.54, 34.58, 22.62, 39.55,
0.08796548843383789,1.16, -0.15, -0.04, -13.92, 6.84, 4.58, 34.97, 24.41, 39.58,
0.08896112442016602,0.77, -0.13, 0.02, 4.82, -4.27, 11.35, 35.42, 23.93, 37.87,
0.08896112442016602,0.90, -0.15, 0.05, -2.62, 16.60, 10.19, 35.40, 22.47, 40.19,
0.08996415138244629,1.12, -0.27, 0.03, -9.40, 9.34, 9.58, 34.96, 21.94, 39.71,
0.09105181694030762,1.25, 0.04, -0.03, -5.07, -3.30, -0.31, 33.57, 23.00, 40.99,
0.09221720695495605,0.78, -0.01, -0.25, -12.27, -20.69, 5.68, 35.22, 22.06, 41.36,
0.09221720695495605,1.03, -0.09, 0.01, 2.01, 26.37, -22.46, 35.13, 22.63, 39.61,
0.09331917762756348,0.89, -0.07, -0.05, 15.93, 2.26, -6.84, 33.46, 23.23, 41.61,
0.09331917762756348,0.94, -0.04, -0.03, 2.32, 3.42, -7.20, 33.36, 23.30, 41.31,
0.09422755241394043,1.17, -0.14, 0.07, 32.78, -17.88, -14.59, 33.02, 23.35, 41.26,
0.09422755241394043,0.93, -0.35, -0.05, -6.96, -11.47, -9.16, 34.83, 22.86, 42.09,
0.09532713890075684,0.92, -0.28, -0.14, -19.53, -10.80, -4.15, 35.90, 24.05, 39.94,
0.09632730484008789,0.87, -0.18, 0.11, 3.23, -20.20, 11.96, 35.21, 25.40, 40.12,
0.09632730484008789,0.96, -0.18, 0.11, -3.78, 27.04, 13.55, 35.35, 24.21, 39.37,
0.09732675552368164,1.01, -0.23, -0.01, -5.13, 0.98, 9.52, 34.85, 23.63, 40.86,
0.09732675552368164,1.25, -0.10, -0.05, -6.29, 12.39, 14.83, 34.85, 23.50, 40.52,
0.09832072257995605,0.82, -0.11, -0.18, 14.22, -39.92, 11.29, 36.05, 22.02, 39.97,
0.09923887252807617,1.09, -0.10, -0.02, 22.16, 27.34, -25.21, 35.99, 20.86, 40.66,
0.09923887252807617,0.85, -0.04, 0.02, 14.89, -18.80, -10.74, 36.46, 21.17, 40.03,
0.10032439231872559,0.89, -0.07, 0.07, -1.10, 1.89, -4.33, 35.41, 21.39, 40.20,
0.10032439231872559,1.15, -0.12, 0.08, 21.48, -13.24, -17.15, 36.13, 21.70, 39.84,
0.10132074356079102,1.03, -0.39, 0.05, 7.51, 3.54, -19.53, 36.35, 21.28, 39.20,
0.10193324089050293,0.95, -0.31, -0.10, -4.70, 4.46, -6.65, 36.60, 22.64, 38.45,
0.10193324089050293,0.80, -0.25, 0.00, -7.69, -23.80, -13.49, 36.29, 23.65, 38.90,
0.10303759574890137,0.91, -0.26, 0.10, -7.02, 1.04, 10.86, 36.50, 24.51, 39.36,
0.10303759574890137,0.96, -0.39, 0.06, -17.15, 9.58, 23.44, 36.08, 23.29, 39.23,
0.1039433479309082,1.13, -0.12, 0.16, -21.12, -1.59, 14.83, 36.21, 23.34, 38.75,
0.10494279861450195,0.88, -0.08, -0.12, 5.68, -8.36, 16.60, 37.15, 21.95, 38.81,
0.10494279861450195,1.11, -0.15, -0.05, 23.62, 36.62, -6.90, 36.05, 21.44, 39.39,
0.10595703125,0.83, -0.13, -0.01, 8.79, 3.72, -5.43, 35.41, 20.83, 40.86,
0.10595703125,0.97, -0.04, -0.07, -15.87, 17.52, -2.32, 34.28, 21.44, 41.58,
0.10713386535644531,1.07, -0.03, -0.16, -3.66, 0.61, -2.14, 33.03, 22.89, 43.54,
0.10794711112976074,1.16, -0.27, -0.12, -6.90, -9.46, -1.71, 33.50, 22.45, 42.63,
0.10794711112976074,0.77, -0.13, -0.11, -2.75, -9.83, 5.31, 34.64, 23.46, 41.83,
0.10894536972045898,1.15, -0.15, -0.09, -9.40, 19.41, -4.88, 34.70, 23.60, 41.22,
0.10894536972045898,0.85, -0.14, -0.07, 7.32, -13.98, 7.08, 34.22, 23.43, 41.37,
0.10995650291442871,0.96, -0.17, -0.04, 2.93, 6.16, 2.08, 33.96, 22.85, 42.65,
0.10995650291442871,0.99, -0.15, -0.03, -9.52, 9.58, 11.78, 33.73, 22.28, 43.74,
0.11094141006469727,1.05, -0.16, -0.01, -7.14, 10.31, 1.04, 32.51, 21.74, 43.08,
0.11194086074829102,1.20, -0.08, -0.07, 2.32, 1.46, 12.27, 33.07, 21.55, 42.61,
0.11194086074829102,0.86, -0.05, -0.21, 0.43, -2.56, -7.08, 33.23, 21.46, 42.76,
0.11295628547668457,1.05, -0.09, -0.21, 7.63, 13.31, -0.61, 32.40, 21.42, 43.23,
0.11295628547668457,0.94, -0.06, -0.14, 4.03, -4.70, -2.81, 32.04, 21.22, 44.04,
0.11395645141601562,0.98, -0.06, -0.12, -2.62, -6.84, 0.31, 31.99, 21.01, 43.31,
0.11395645141601562,0.97, -0.07, -0.08, -10.74, -4.76, -2.75, 32.65, 21.19, 42.76,
0.11495757102966309,1.00, -0.04, -0.02, -5.86, -7.20, -2.38, 32.47, 22.51, 42.68,
0.11495757102966309,1.09, -0.12, -0.03, -8.06, 1.10, -0.06, 33.00, 22.52, 43.65,
0.11594581604003906,0.97, -0.16, -0.11, -4.82, -1.28, -9.16, 31.98, 23.66, 42.37,
0.11594581604003906,0.97, -0.19, -0.20, -31.01, 4.88, 0.49, 32.18, 24.50, 42.55,
0.11746621131896973,1.07, -0.06, -0.06, -6.41, 5.07, -3.17, 31.15, 27.17, 43.18,
0.11746621131896973,0.91, -0.16, -0.12, 0.24, -7.45, 5.74, 31.53, 26.48, 41.00,
0.11849665641784668,0.95, -0.09, -0.08, -10.80, 7.45, 5.00, 31.99, 26.29, 43.43,
0.11849665641784668,0.99, -0.08, -0.06, -9.83, 3.66, 11.05, 31.87, 26.04, 41.09,
0.11949539184570312,1.01, -0.07, -0.08, 4.21, -3.85, 2.87, 31.52, 25.71, 41.74,
0.12049555778503418,1.14, -0.04, -0.03, 1.53, 4.09, 16.66, 32.06, 24.91, 41.66,
0.12049555778503418,0.96, -0.11, -0.10, -9.83, 1.34, 9.34, 33.06, 23.88, 42.63,
0.12149548530578613,0.89, 0.01, -0.22, -3.11, 7.81, -3.23, 33.12, 24.35, 41.87,
0.12149548530578613,1.07, 0.01, -0.27, 21.67, 8.30, -4.64, 32.03, 23.95, 42.40,
0.12250351905822754,0.94, -0.03, -0.18, 1.04, -6.29, -2.62, 32.01, 23.56, 42.58,
0.12250351905822754,1.01, 0.02, 0.08, 3.66, 4.03, -5.07, 33.72, 40.32, 14.21,
0.2132246494293213,1.01, 0.00, 0.07, 5.00, 9.16, -5.62, 33.47, 40.42, 14.73,
0.3218982219696045,1.00, 0.00, 0.04, 8.18, 9.77, -6.04, 33.24, 40.37, 15.95,
0.43212103843688965,1.02, -0.01, 0.03, 9.52, 11.72, -4.21, 32.56, 41.35, 17.32,
0.5426464080810547,1.01, -0.01, 0.01, 8.91, 4.64, -6.71, 32.17, 41.88, 18.87,
0.6537067890167236,0.98, -0.05, 0.01, 5.43, 8.48, -5.62, 32.45, 42.04, 19.54,
0.7638125419616699,0.97, -0.09, 0.00, 2.75, 7.87, -6.29, 32.65, 42.53, 18.90,
0.8729891777038574,1.00, -0.19, -0.08, -6.41, 23.19, -5.19, 31.77, 42.83, 19.41,
0.9826316833496094,1.10, -0.15, -0.12, -9.58, 0.92, -1.71, 31.01, 43.44, 21.37,
1.0920257568359375,0.94, -0.11, -0.03, 11.90, -13.98, 14.28, 31.19, 43.23, 20.63,
1.2026546001434326,0.96, -0.26, -0.01, 26.86, 3.54, 11.90, 32.14, 40.98, 21.55,
1.310924768447876,1.06, -0.06, -0.15, 6.10, -4.88, 3.42, 32.52, 40.47, 23.12,
1.4206926822662354,0.93, 0.06, -0.05, 23.74, 11.47, 19.65, 32.34, 39.61, 23.78,
1.5302720069885254,1.01, 0.21, -0.11, 16.48, -0.61, 6.04, 32.23, 37.56, 25.01,
1.6393983364105225,1.01, 0.16, -0.07, 29.66, -1.53, 4.39, 32.69, 37.30, 25.26,
1.7482366561889648,0.96, 0.16, -0.08, 2.99, -10.86, -0.18, 33.22, 35.82, 25.46,
1.8583288192749023,1.03, 0.05, -0.02, 3.17, -1.16, -6.71, 33.02, 35.94, 26.18,
1.9683141708374023,0.97, 0.04, -0.07, 10.74, -7.08, -4.21, 33.70, 35.89, 26.10,
2.078500509262085,1.01, 0.02, -0.02, 1.28, -3.48, -7.45, 33.62, 35.97, 25.85,
2.187805652618408,1.01, 0.01, -0.02, -2.38, -9.58, -4.52, 32.80, 36.79, 26.39,
2.2977912425994873,1.00, 0.01, -0.01, -7.08, -10.56, -3.66, 33.39, 37.26, 24.91,
2.408267021179199,1.02, 0.02, 0.02, -8.54, -8.48, -5.19, 33.29, 37.73, 23.99,
2.5166969299316406,0.96, -0.00, 0.06, -4.33, -4.82, 2.75, 32.97, 38.07, 23.50,
2.6275689601898193,1.05, -0.02, 0.05, -13.00, -13.31, -4.09, 32.76, 38.55, 22.12,
2.7364001274108887,0.97, 0.01, 0.13, -10.86, -9.09, -2.56, 33.19, 38.82, 20.48,
2.8475165367126465,1.03, -0.01, 0.14, -3.60, -7.93, -0.55, 33.24, 38.54, 20.19,
2.9573161602020264,0.96, -0.00, 0.15, 2.20, 3.30, -1.59, 32.82, 38.76, 19.47,
3.0673935413360596,0.98, 0.11, 0.09, 0.12, -1.89, 0.12, 32.73, 38.93, 20.23,
3.176121711730957,1.01, 0.07, 0.13, -13.73, -5.49, -3.30, 32.81, 39.50, 19.64,
3.2874791622161865,0.97, 0.07, 0.11, -30.64, -7.08, -7.57, 33.03, 39.56, 17.40,
3.396653175354004,0.93, 0.04, 0.11, -18.92, 4.15, -13.18, 32.56, 40.33, 15.86,
3.505722999572754,0.97, -0.14, 0.14, 0.61, -6.47, -11.35, 31.91, 41.75, 16.39,
3.615410804748535,1.04, -0.14, 0.15, -6.65, -10.25, -8.61, 31.32, 42.26, 15.72,
3.725431203842163,0.96, -0.19, 0.20, 11.41, -16.48, 3.17, 31.74, 42.61, 14.28,
3.8357577323913574,0.95, -0.16, 0.16, 20.63, -15.63, 19.96, 31.95, 42.79, 13.93,
3.94732666015625,0.95, -0.07, 0.30, -6.59, -13.24, 23.62, 33.44, 40.14, 14.79,
4.057448863983154,0.99, -0.05, 0.24, -29.42, 0.67, 11.66, 33.76, 39.78, 11.66,
4.166991949081421,0.89, 0.08, 0.25, -30.09, -10.74, 3.91, 33.48, 39.43, 11.49,
4.277140378952026,1.00, 0.09, 0.29, -14.53, 3.05, 6.47, 33.33, 38.17, 10.68,
4.3864264488220215,0.97, 0.14, 0.22, -6.29, -1.46, 1.71, 33.69, 37.98, 9.86,
4.496001720428467,0.92, 0.11, 0.30, 8.18, -14.16, 3.36, 34.07, 38.01, 8.37,
4.605341672897339,0.91, 0.05, 0.34, -0.49, 3.48, -4.09, 33.87, 38.18, 8.70,
4.716763019561768,0.97, 0.20, 0.42, 18.80, 5.00, -18.19, 33.72, 39.48, 10.25,
4.826714038848877,1.00, 0.02, 0.22, 19.23, 3.42, 0.31, 33.20, 39.42, 10.86,
4.935051202774048,0.96, 0.06, 0.27, 15.93, 2.69, 6.65, 34.00, 40.33, 13.40,
5.044109344482422,0.97, 0.01, 0.25, 14.53, -0.24, -1.10, 34.11, 38.81, 12.52,
5.154733180999756,0.92, 0.00, 0.25, 4.39, 7.69, -6.71, 33.75, 39.53, 13.06,
5.264097452163696,0.93, 0.04, 0.23, -9.95, 23.80, -18.01, 33.78, 40.61, 14.27,
5.3742992877960205,0.89, 0.01, 0.02, -5.19, 14.89, -16.66, 32.84, 42.07, 15.05,
5.484692573547363,1.06, -0.10, 0.14, -19.71, 27.34, 0.49, 32.21, 42.42, 15.98,
5.594048976898193,0.94, -0.12, 0.08, -6.90, 1.04, 7.75, 32.47, 42.41, 17.42,
5.703847646713257,1.11, -0.03, 0.12, 8.06, -11.17, 9.16, 32.92, 41.39, 16.55,
5.813704252243042,0.84, -0.02, 0.03, -2.14, 4.82, 26.73, 33.73, 39.54, 14.64,
5.923650741577148,1.17, 0.21, 0.10, -5.49, 11.41, 9.03, 34.66, 38.27, 16.83,
6.03200888633728,0.92, 0.08, 0.06, -22.46, -3.48, -13.85, 34.84, 38.20, 15.86,
6.141660451889038,1.01, 0.24, 0.04, -22.77, -1.83, -6.16, 33.40, 39.62, 15.20,
6.250780820846558,1.00, -0.05, 0.09, -2.56, -2.81, 0.31, 34.18, 38.71, 14.62,
6.360561847686768,0.98, 0.01, 0.02, 4.88, 1.40, -5.37, 34.35, 38.85, 13.50,
6.4701056480407715,1.05, -0.07, 0.05, -3.30, -8.24, -4.52, 34.62, 39.55, 12.67,
6.580012798309326,0.98, -0.03, 0.07, -11.72, -14.22, -2.44, 34.11, 40.39, 13.46,
6.690776824951172,0.93, 0.00, 0.08, -1.34, 0.67, -1.95, 33.63, 39.99, 12.28,
6.801070213317871,1.05, 0.01, 0.12, -1.71, -8.48, 0.24, 33.25, 39.97, 12.21,
6.910964727401733,0.93, 0.02, 0.11, 3.11, -1.34, 1.04, 33.67, 39.99, 11.46,
7.021039962768555,1.05, -0.02, 0.12, 1.65, -6.59, 0.06, 33.47, 39.89, 10.72,
7.131403923034668,0.96, 0.02, 0.14, -1.65, -2.08, 1.59, 33.58, 39.66, 10.61,
7.24121618270874,0.98, 0.03, 0.14, -3.05, -4.21, 0.49, 33.61, 39.87, 10.84,
7.351198196411133,1.03, 0.05, 0.18, -6.35, -0.49, 0.00, 33.42, 40.28, 10.75,
7.46236515045166,0.95, 0.02, 0.16, 0.61, -0.73, -3.23, 33.79, 40.17, 9.34,
7.572696685791016,1.00, 0.02, 0.15, 1.34, 1.34, -4.03, 33.42, 40.30, 10.57,
7.680898427963257,0.97, 0.01, 0.18, 0.73, -0.73, -1.04, 33.42, 40.06, 10.51,
7.791663885116577,1.00, 0.01, 0.17, -1.59, -1.46, 1.10, 33.78, 39.90, 9.92,
7.902088642120361,0.98, 0.01, 0.17, -1.95, 0.85, 2.38, 33.70, 40.09, 9.01,
8.011780500411987,0.99, -0.01, 0.17, -4.88, 1.04, 3.54, 34.27, 39.53, 11.28,
8.120922565460205,0.98, -0.01, 0.16, -10.68, 2.69, 4.64, 33.76, 39.18, 10.49,
8.231026649475098,0.91, 0.19, 0.13, -16.11, 0.98, 1.46, 33.53, 39.05, 10.45,
8.342715501785278,1.08, 0.14, 0.14, -38.39, 12.33, 1.95, 34.48, 38.16, 10.16,
8.452005624771118,0.95, 0.17, 0.05, -75.99, -0.43, -19.41, 33.59, 38.01, 6.54,
8.561892747879028,0.98, -0.06, 0.06, -47.97, 4.27, -17.64, 33.30, 37.71, 5.08,
8.671871900558472,1.11, -0.07, 0.09, -31.80, 5.13, -3.05, 32.82, 37.66, 2.48,
8.782570123672485,0.93, -0.07, 0.07, -6.29, -4.76, 1.65, 32.18, 37.08, 1.12,
8.892043113708496,0.99, -0.14, 0.08, 4.15, -6.41, 1.71, 32.58, 36.89, 2.11,
9.003781795501709,0.94, 0.08, 0.13, 1.04, 0.98, 7.93, 32.80, 36.85, 1.23,
9.11309266090393,1.13, 0.20, 0.11, -21.18, 15.32, 25.21, 33.13, 35.69, 1.42,
9.22323751449585,0.87, 0.19, 0.05, -19.29, -22.16, -9.28, 33.85, 35.05, 1.34,
9.333767414093018,1.10, 0.12, 0.11, -17.52, 0.55, -4.27, 33.67, 34.02, -0.68,
9.444249391555786,0.89, 0.06, 0.05, 6.84, -1.22, -8.91, 33.20, 34.29, -0.83,
9.553889274597168,1.04, 0.02, 0.11, 4.27, -3.48, -0.92, 32.36, 34.56, -0.50,
9.664624452590942,0.98, 0.02, 0.10, -2.26, -0.73, -2.56, 32.95, 35.34, -1.07,
9.774386882781982,1.00, 0.04, 0.11, -8.18, 0.00, -1.46, 31.96, 35.01, -3.08,
9.883881092071533,1.00, 0.04, 0.10, -5.49, -0.12, -1.89, 32.28, 35.08, -1.48,
9.993979692459106,1.00, 0.06, 0.09, -3.54, 3.48, 0.18, 32.40, 34.34, -2.01,
10.105700492858887,0.99, 0.04, 0.09, -0.92, -1.59, -0.37, 32.76, 34.72, -2.04,
10.216281175613403,1.01, 0.05, 0.10, 1.10, 1.04, 0.98, 33.31, 34.24, -1.71,
10.326499223709106,1.00, 0.05, 0.10, -2.26, -2.01, -0.85, 32.86, 34.64, -0.98,
10.436728477478027,1.00, 0.06, 0.09, -1.34, 1.22, -0.43, 32.42, 34.16, -1.99,
10.546319484710693,0.99, 0.06, 0.09, -1.77, 0.43, -0.43, 33.53, 34.23, -1.61,
10.656464576721191,1.00, 0.06, 0.09, -0.98, 0.85, -1.40, 33.22, 34.05, -2.20,
10.765947818756104,1.00, 0.05, 0.10, -1.71, -1.53, -1.04, 32.82, 34.46, -2.72,
10.87672472000122,0.99, 0.06, 0.10, -4.52, -1.04, -1.46, 33.06, 34.16, -3.03,
10.98593258857727,1.00, 0.06, 0.09, -4.64, 2.32, -1.59, 32.78, 33.92, -2.51,
11.096410989761353,1.00, 0.05, 0.08, -6.16, 2.75, -4.46, 33.50, 34.38, -3.75,
11.206218719482422,0.99, 0.03, 0.07, -4.94, 4.03, -5.86, 32.21, 34.08, -2.43,
11.315807104110718,0.97, -0.04, 0.07, -5.55, 8.54, -7.69, 32.58, 34.19, -2.21,
11.425863265991211,1.05, -0.05, 0.07, 3.54, 3.85, -2.32, 33.75, 34.67, -1.98,
11.536609888076782,0.96, -0.05, 0.05, 24.66, 1.28, 7.14, 32.91, 34.64, -1.35,
11.645251750946045,1.00, -0.12, 0.05, 36.99, -3.72, 10.50, 33.17, 35.29, 1.40,
11.756648302078247,1.03, 0.07, 0.09, 21.24, -4.39, 14.59, 32.97, 35.49, 0.66,
11.866698503494263,0.92, 0.13, 0.07, 14.34, -0.92, 23.44, 34.18, 34.79, 2.32,
11.976639986038208,1.04, 0.26, 0.05, 25.63, -6.23, 24.29, 34.34, 34.11, 1.04,
12.086134910583496,0.93, 0.17, 0.15, -0.43, -22.03, 11.29, 35.53, 32.93, 3.55,
12.19648790359497,1.01, 0.24, 0.18, 7.57, -12.57, 0.79, 35.12, 32.09, 2.34,
12.30487871170044,0.96, 0.24, 0.16, 1.28, -1.10, 1.28, 34.03, 32.17, 2.47,
12.414573907852173,0.93, 0.21, 0.17, 3.30, -9.34, -4.09, 33.83, 32.21, 1.21,
12.523823976516724,0.97, 0.20, 0.18, 4.76, 2.87, -4.09, 33.64, 33.19, 0.87,
12.633781671524048,0.98, 0.16, 0.17, 3.23, 3.36, -4.03, 34.03, 33.81, 2.34,
12.743489503860474,0.97, 0.15, 0.17, 0.49, 7.26, -0.55, 34.31, 33.95, 1.72,
12.854331016540527,0.98, 0.19, 0.21, 0.98, -1.40, -0.24, 34.90, 33.74, 1.77,
12.964340209960938,0.95, 0.17, 0.16, 0.49, 8.42, -1.28, 34.35, 34.19, 2.29,
13.073933124542236,1.00, 0.12, 0.15, -4.39, -9.70, 2.75, 34.72, 33.65, 1.40,
13.183501720428467,0.98, 0.16, 0.18, 0.12, 2.87, -0.79, 34.89, 33.92, 1.81,
13.292633771896362,0.98, 0.16, 0.17, -0.73, 0.92, -1.46, 34.63, 33.86, 2.49,
13.402612447738647,0.98, 0.16, 0.16, -0.43, 0.06, -2.56, 34.59, 33.81, 1.62,
13.512011528015137,0.98, 0.16, 0.16, 0.79, -0.49, -1.95, 34.52, 34.29, 1.83,
13.62203049659729,0.98, 0.15, 0.16, 1.04, -0.24, -1.28, 34.52, 34.14, 2.67,
13.732212781906128,0.98, 0.16, 0.17, -0.24, 1.71, -0.98, 34.38, 34.33, 1.55,
13.8421950340271,0.97, 0.16, 0.16, -0.79, 0.00, -1.40, 34.41, 34.31, 1.86,
13.95237421989441,0.98, 0.15, 0.11, -3.78, -6.84, -1.77, 34.57, 34.20, 1.09,
14.062057733535767,0.98, 0.15, 0.17, -2.20, -0.43, -1.22, 33.70, 34.61, 1.33,
14.172182321548462,0.98, 0.15, 0.17, -2.20, 0.79, -0.98, 33.90, 33.72, 0.57,
14.282040119171143,0.98, 0.15, 0.17, -0.43, -0.49, -2.56, 34.05, 34.11, 1.76,
14.392602920532227,0.97, 0.14, 0.17, 0.24, -0.37, -2.01, 34.24, 34.03, 1.62,
14.502548933029175,0.99, 0.14, 0.17, -0.12, 0.92, -1.46, 33.94, 34.44, 0.83,
14.611701965332031,0.97, 0.14, 0.11, -1.22, -8.06, -3.60, 34.46, 34.85, 1.53,
14.720990180969238,0.97, 0.12, 0.18, -0.12, -0.37, -2.08, 34.77, 33.87, 0.65,
14.831088304519653,0.97, 0.13, 0.16, -0.49, 3.72, -0.06, 34.24, 34.52, 1.20,
14.940953731536865,0.98, 0.13, 0.17, -1.28, 0.98, -0.73, 34.62, 34.30, 0.57,
15.051255941390991,0.99, 0.13, 0.17, -1.83, 0.55, -1.46, 34.14, 34.57, 1.78,
15.160684585571289,0.98, 0.13, 0.15, -2.62, 1.04, -1.34, 34.07, 34.90, 0.70,
15.27011489868164,0.98, 0.13, 0.16, -3.78, -0.61, -1.71, 33.48, 34.90, 1.29,
15.380926132202148,0.98, 0.12, 0.16, -2.20, -0.06, -1.65, 33.91, 34.48, 0.98,
15.491494178771973,0.98, 0.13, 0.16, -2.08, 0.43, -0.73, 34.44, 34.56, 0.84,
15.599821090698242,0.96, 0.14, 0.12, -3.11, -0.43, -1.10, 34.79, 34.48, 0.56,
15.71018099784851,0.99, 0.13, 0.17, -3.17, 2.99, -1.77, 34.09, 34.70, 0.00,
15.820051670074463,0.97, 0.14, 0.12, -5.31, -2.93, -2.81, 33.62, 34.96, 0.44,
15.929697275161743,0.98, 0.13, 0.16, -6.29, 6.10, -2.62, 33.95, 34.31, 0.27,
16.038024425506592,0.97, 0.14, 0.16, -7.39, 0.12, -0.79, 33.86, 34.06, -1.11,
16.14741039276123,0.99, 0.14, 0.16, -7.81, 2.75, -0.55, 34.31, 34.03, 0.77,
16.257147073745728,0.98, 0.13, 0.14, -10.01, 1.83, -2.01, 33.90, 33.59, -1.51,
16.367166757583618,0.99, 0.13, 0.14, -11.35, 2.87, -3.30, 33.94, 33.58, 0.15,
16.477295875549316,0.98, 0.13, 0.12, -12.51, 1.77, -5.19, 34.30, 32.74, 0.28,
16.586716651916504,0.99, 0.12, 0.11, -14.28, 0.98, -8.06, 34.36, 33.25, -1.86,
16.69679093360901,0.98, 0.11, 0.10, -15.38, 1.22, -12.21, 33.76, 33.26, -1.60,
16.80732297897339,1.00, 0.08, 0.10, -16.30, 1.95, -11.90, 33.42, 33.79, -1.82,
16.917622566223145,1.00, 0.06, 0.08, -14.83, 3.85, -11.66, 33.30, 33.53, -1.90,
17.02726650238037,1.00, 0.03, 0.06, -9.89, 4.21, -5.86, 32.97, 33.45, -2.42,
17.137093544006348,0.94, -0.01, 0.03, -6.71, 2.99, -6.41, 33.17, 33.08, -2.27,
17.24763560295105,0.95, -0.08, 0.03, 1.71, -5.31, -12.27, 32.29, 34.19, -3.25,
17.35739016532898,0.99, 0.05, 0.13, -18.07, -3.85, -6.90, 32.37, 34.36, -3.33,
17.467026233673096,1.12, -0.05, 0.04, -24.23, 7.20, 0.92, 31.68, 33.58, -3.55,
17.57743263244629,0.98, -0.01, 0.07, -7.20, -1.28, 0.37, 32.30, 32.62, -5.03,
17.688435316085815,0.98, -0.04, 0.03, 0.18, -1.16, -5.00, 32.41, 32.01, -5.86,
17.796998739242554,1.01, -0.06, 0.06, 3.36, -3.30, -5.55, 32.01, 32.40, -4.55,
17.907203674316406,1.00, -0.05, 0.08, 0.79, -4.52, -4.76, 31.92, 33.04, -4.55,
18.018561363220215,0.99, -0.05, 0.09, 1.34, -2.75, 0.55, 31.69, 33.57, -5.36,
18.128671646118164,1.00, -0.04, 0.09, -2.69, -1.10, 2.01, 31.29, 33.09, -4.60,
18.23959970474243,1.00, -0.03, 0.10, -5.31, -2.08, 1.46, 31.91, 32.54, -4.20,
18.34882616996765,1.00, -0.02, 0.09, -5.55, -0.12, 0.24, 31.79, 32.92, -4.77,
18.460554122924805,1.00, -0.02, 0.08, -2.87, 0.18, -0.18, 31.87, 32.70, -5.88,
18.570422410964966,1.00, -0.02, 0.08, -1.59, -1.22, -0.55, 31.60, 32.68, -4.87,
18.679889917373657,1.00, -0.03, 0.09, 0.18, -1.46, 0.00, 31.12, 32.81, -4.70,
18.790547370910645,1.00, -0.02, 0.10, -0.06, -1.77, 0.37, 31.15, 32.57, -5.51,
18.899906873703003,1.00, -0.03, 0.09, -0.92, -0.61, -0.18, 31.48, 32.14, -6.56,
19.010327100753784,1.00, -0.02, 0.10, 0.12, -0.06, 1.34, 31.08, 32.47, -5.08,
19.11981177330017,1.00, -0.00, 0.09, 4.09, -0.12, 0.67, 31.41, 32.12, -5.02,
19.23003911972046,0.98, -0.02, 0.09, 6.77, -0.31, 0.06, 32.06, 32.35, -5.18,
19.34035849571228,1.00, -0.01, 0.08, 11.23, 1.40, 0.00, 31.91, 32.63, -4.48,
19.450413703918457,1.00, -0.03, 0.08, 15.69, 1.59, -0.61, 31.85, 33.74, -3.41,
19.559337854385376,1.01, -0.04, 0.07, 17.58, 1.16, 0.43, 31.57, 34.16, -3.10,
19.6704044342041,1.01, -0.04, 0.08, 15.44, -1.59, 2.20, 32.37, 35.21, -3.09,
19.780670881271362,0.98, -0.05, 0.09, 15.08, 0.92, 6.23, 31.86, 35.10, -2.10,
19.8915376663208,1.02, -0.02, 0.08, 25.27, 1.28, 12.21, 33.02, 35.34, -1.16,
20.00165867805481,1.00, 0.03, 0.06, 39.98, 0.00, 8.91, 33.19, 36.02, 1.39,
20.110660552978516,1.01, 0.03, 0.09, 37.41, -2.50, 9.64, 33.74, 36.89, 2.28,
20.218994617462158,0.98, 0.03, 0.08, 25.82, -2.93, 8.91, 33.84, 36.54, 3.81,
20.32883310317993,0.99, 0.06, 0.10, 15.63, -3.72, 8.42, 33.79, 37.07, 4.48,
20.439959049224854,1.00, 0.09, 0.12, 12.94, -6.96, 5.92, 34.38, 37.57, 5.60,
20.550798892974854,0.98, 0.06, 0.13, 10.56, -10.07, 5.62, 34.79, 37.11, 5.22,
20.661561489105225,0.99, 0.08, 0.15, 2.01, -0.18, 5.55, 34.47, 36.95, 5.46,
20.771012783050537,0.98, 0.10, 0.16, 0.49, -6.35, 4.88, 34.35, 37.05, 4.72,
20.881597995758057,1.00, 0.11, 0.18, 4.15, -8.30, 5.62, 34.35, 36.28, 4.38,
20.991248607635498,0.95, 0.13, 0.17, 11.29, -9.34, 9.22, 34.14, 35.93, 4.28,
21.10104489326477,0.87, 0.17, 0.19, 12.63, -8.73, 13.73, 34.35, 35.14, 4.63,
21.210641622543335,1.09, 0.18, 0.34, -9.40, -10.38, 13.43, 35.16, 34.86, 4.79,
21.32076644897461,0.90, 0.19, 0.22, -11.47, -16.11, -10.25, 33.91, 35.00, 2.34,
21.431640625,0.98, 0.24, 0.27, -7.81, -3.05, 0.98, 33.83, 35.22, 2.78,
21.54183602333069,0.95, 0.20, 0.25, -7.93, 12.02, -0.73, 33.53, 34.58, 0.87,
21.65209174156189,0.95, 0.19, 0.25, -3.85, 4.64, -2.93, 34.09, 34.67, 1.65,
21.76039481163025,0.95, 0.18, 0.22, -1.89, 3.17, -4.27, 33.76, 34.56, 2.37,
21.8707857131958,0.94, 0.20, 0.26, 0.37, -0.18, -1.59, 34.16, 34.56, 2.98,
21.9816255569458,0.97, 0.16, 0.23, -0.12, 0.61, -1.83, 34.80, 35.17, 2.37,
22.091615676879883,0.97, 0.14, 0.23, -2.44, 1.77, -3.48, 34.20, 34.88, 2.04,
22.20164680480957,0.97, 0.15, 0.21, -2.75, 1.16, -1.83, 34.42, 35.06, 2.50,
22.311336994171143,0.96, 0.15, 0.21, -0.79, 2.32, -0.61, 34.16, 35.52, 2.56,
22.420353651046753,0.97, 0.16, 0.21, 0.06, 1.22, 0.73, 34.56, 34.58, 1.83,
22.52958583831787,0.97, 0.16, 0.21, -0.73, -0.37, 1.22, 34.73, 34.84, 2.95,
22.638230323791504,0.96, 0.15, 0.21, -1.46, -2.26, 0.79, 34.68, 34.85, 2.14,
22.74687623977661,0.96, 0.17, 0.21, -2.62, -3.66, 1.04, 34.62, 34.75, 2.92,
22.855998039245605,1.01, 0.17, 0.22, -0.55, -2.87, 0.85, 34.50, 34.45, 1.34,
22.96641516685486,0.95, 0.20, 0.22, 0.06, 4.46, 0.92, 34.47, 34.48, 2.29,
23.07490825653076,0.97, 0.22, 0.23, 9.28, 5.19, -0.31, 35.28, 34.64, 2.67,
23.185211658477783,0.99, 0.19, 0.18, 5.68, -4.46, -1.40, 35.58, 34.96, 3.96,
23.29496741294861,0.95, 0.24, 0.18, 8.18, 8.30, -3.48, 35.41, 34.69, 4.31,
23.405126094818115,0.94, 0.17, 0.18, 6.90, 6.04, -2.87, 36.21, 35.30, 4.48,
23.51565408706665,0.97, 0.16, 0.15, 4.46, 6.90, -12.02, 35.52, 35.18, 6.19,
23.624138593673706,0.99, 0.13, 0.14, 8.24, 6.77, -13.98, 35.19, 36.17, 5.66,
23.733006954193115,1.00, 0.07, 0.13, 10.86, 3.85, -14.28, 35.16, 37.99, 6.14,
23.84287405014038,1.00, 0.02, 0.13, 7.32, 8.36, -8.48, 34.83, 38.85, 6.29,
23.952876806259155,0.97, 0.03, 0.07, 3.97, 9.70, -10.74, 35.06, 39.11, 8.00,
24.062092065811157,0.99, -0.11, 0.06, 4.39, 26.37, -11.47, 34.61, 40.34, 9.23,
24.172071933746338,1.09, -0.03, -0.01, -0.06, 17.40, -16.48, 34.64, 42.14, 11.95,
24.281931400299072,0.94, -0.16, 0.01, 5.92, -4.70, -6.90, 34.03, 42.16, 11.62,
24.39127516746521,0.80, -0.11, 0.03, 13.24, -1.40, -18.19, 33.78, 43.13, 11.46,
24.501614809036255,1.38, -0.09, 0.27, 27.47, 13.79, 28.81, 32.15, 45.32, 13.10,
24.610514879226685,0.83, -0.22, -0.20, -17.33, 17.21, 9.16, 33.31, 44.13, 14.79,
24.71878457069397,1.20, -0.11, -0.08, -9.34, 19.59, 9.52, 33.39, 43.08, 16.42,
24.82956862449646,0.92, 0.01, -0.15, 3.97, 4.94, 0.79, 33.89, 42.66, 17.30,
24.938998222351074,0.97, -0.12, -0.15, 2.08, 2.99, 1.40, 34.01, 42.46, 16.87,
25.049227237701416,1.07, -0.03, -0.11, -3.42, -11.96, 0.61, 33.73, 42.64, 17.14,
25.15781879425049,0.95, -0.04, -0.11, -0.49, -6.90, 2.75, 33.67, 42.27, 16.56,
25.26847219467163,1.04, -0.08, -0.09, -2.99, -6.53, -0.06, 34.29, 42.19, 14.66,
25.378025770187378,1.00, -0.02, -0.06, 0.79, -6.84, 2.93, 34.19, 41.70, 13.13,
25.48934268951416,0.98, -0.06, -0.02, 1.16, -7.45, 2.26, 34.24, 41.89, 14.20,
25.599424362182617,1.00, -0.02, -0.01, -2.62, -4.27, 1.10, 34.39, 41.33, 13.16,
25.708783864974976,1.03, -0.02, 0.01, -1.53, -4.33, 2.50, 34.47, 41.48, 13.01,
25.81895637512207,0.97, -0.02, -0.00, -1.28, -3.72, 2.20, 34.84, 41.03, 12.45,
25.929598093032837,1.04, -0.03, 0.01, 0.06, -0.67, -0.49, 34.77, 41.03, 12.90,
26.03902792930603,1.10, -0.05, 0.02, -0.43, -3.54, 9.70, 35.21, 41.14, 12.79,
26.14912748336792,0.86, -0.12, -0.02, -0.55, -6.65, 10.86, 35.02, 40.06, 12.10,
26.258988618850708,1.14, 0.06, 0.05, 1.89, -5.86, 6.90, 35.23, 39.71, 13.27,
26.36838722229004,0.89, 0.07, 0.02, 7.32, -4.58, 18.43, 35.67, 38.72, 12.67,
26.477870225906372,1.05, 0.12, 0.06, 1.16, -4.58, 14.40, 36.29, 37.02, 13.92,
26.587409496307373,0.98, 0.12, 0.07, 3.66, -4.15, 13.31, 36.90, 36.18, 12.82,
26.6957368850708,0.99, 0.14, 0.07, -1.95, -4.33, 10.86, 36.67, 35.22, 12.07,
26.806089401245117,0.98, 0.18, 0.08, -10.31, -2.87, 11.47, 36.73, 34.95, 12.94,
26.91605234146118,0.98, 0.22, 0.08, -3.05, 2.99, 10.25, 37.19, 33.73, 12.12,
27.02629280090332,1.00, 0.25, 0.06, 2.99, 0.24, 5.43, 37.51, 32.43, 12.87,
27.135212659835815,0.90, 0.28, 0.01, 17.09, -6.71, 2.50, 37.72, 32.80, 12.38,
27.24524974822998,0.99, 0.27, 0.03, 18.19, -2.75, 1.34, 37.87, 32.28, 13.01,
27.353942394256592,0.74, 0.17, 0.13, 7.57, 2.81, -10.86, 37.83, 33.08, 12.77,
27.463408946990967,1.01, 0.23, 0.13, 15.69, 11.05, -5.37, 37.76, 33.37, 14.87,
27.572141408920288,1.00, 0.12, 0.05, 2.56, 5.00, -15.44, 37.55, 33.83, 15.56,
27.681663751602173,0.97, 0.19, 0.02, -1.65, -3.42, -6.04, 36.93, 34.14, 16.13,
27.791841506958008,1.04, 0.18, 0.08, 3.78, 1.83, 0.06, 36.10, 34.62, 16.43,
27.901209592819214,1.00, 0.16, 0.08, 2.08, -13.73, -2.50, 36.62, 35.10, 14.90,
28.011345624923706,0.97, 0.16, 0.11, -0.37, -17.64, 1.16, 36.32, 35.22, 14.12,
28.120277404785156,0.95, 0.15, 0.19, -1.34, -3.54, -3.60, 36.28, 35.71, 13.50,
28.228986501693726,1.00, 0.15, 0.14, 1.83, 2.01, -1.65, 36.28, 35.80, 13.35,
28.338295459747314,0.98, 0.13, 0.13, -0.92, -0.85, -2.08, 36.22, 35.80, 12.78,
28.448145389556885,0.97, 0.16, 0.13, 1.95, 8.36, -3.54, 35.93, 35.93, 12.63,
28.558547496795654,0.99, 0.12, 0.11, 1.59, -1.59, -0.43, 35.93, 36.05, 13.73,
28.66843008995056,0.99, 0.13, 0.15, 0.73, 1.46, -3.30, 35.82, 36.11, 14.77,
28.777977466583252,0.98, 0.13, 0.13, 4.82, 5.37, -2.20, 36.69, 36.27, 14.55,
28.887361764907837,0.97, 0.13, 0.10, 4.46, 3.78, -0.79, 36.30, 35.99, 14.61,
28.995909929275513,0.99, 0.11, 0.11, 3.97, 1.89, 0.18, 36.10, 36.15, 14.73,
29.10518217086792,0.98, 0.11, 0.09, 1.16, -1.04, -0.18, 36.30, 36.44, 16.15,
29.21475338935852,0.99, 0.13, 0.10, -2.14, 0.49, -0.98, 36.61, 36.30, 16.22,
29.325261116027832,0.99, 0.12, 0.09, 1.10, -0.98, 0.06, 36.89, 35.78, 15.77,
29.43503737449646,0.99, 0.13, 0.10, 3.23, -3.60, 0.67, 36.30, 36.29, 16.66,
29.545864582061768,0.98, 0.12, 0.13, 0.37, -3.23, -0.79, 36.19, 36.49, 16.09,
29.656352519989014,1.00, 0.11, 0.11, -1.77, 5.00, -0.37, 36.67, 35.80, 15.44,
29.765318155288696,0.99, 0.13, 0.10, -2.99, -1.28, 0.24, 36.55, 36.11, 15.20,
29.87354326248169,1.00, 0.16, 0.11, 2.38, -0.49, -2.32, 36.80, 36.22, 15.09,
29.983830451965332,0.98, 0.16, 0.14, -3.11, 0.24, -7.57, 36.24, 36.35, 16.24,
30.093904495239258,1.07, 0.13, 0.11, -9.89, -0.43, -12.08, 36.47, 37.02, 15.25,
30.2033634185791,0.93, 0.09, 0.02, -1.46, -6.77, -6.35, 36.01, 37.73, 15.91,
30.3128502368927,1.03, 0.01, 0.10, -5.07, -4.82, -4.70, 35.71, 38.27, 14.27,
30.423303604125977,0.95, 0.04, 0.11, -21.91, -5.80, -15.08, 35.61, 39.27, 13.18,
30.53273057937622,0.96, 0.04, 0.10, -18.86, -0.43, -11.47, 34.17, 39.43, 11.85,
30.642781257629395,1.00, 0.03, 0.12, -14.95, -4.27, -3.36, 34.24, 40.19, 11.00,
30.753461122512817,0.96, 0.02, 0.13, -11.60, -0.79, -3.72, 34.27, 40.00, 10.36,
30.8629469871521,0.98, -0.00, 0.11, -8.42, 6.35, -3.48, 35.23, 39.82, 10.16,
30.973010301589966,1.00, -0.06, 0.08, -4.88, 8.24, -3.60, 34.62, 39.70, 9.55,
31.08268141746521,1.05, -0.06, 0.05, -5.68, 2.62, -3.85, 34.68, 40.17, 9.52,
31.192985773086548,0.99, -0.03, 0.06, 4.21, -1.34, -3.36, 34.94, 39.88, 9.46,
31.30349040031433,0.99, -0.05, 0.07, 3.11, 2.93, -0.06, 34.19, 40.31, 10.36,
31.413491249084473,1.01, -0.03, 0.06, -2.87, -0.49, 1.10, 34.61, 39.82, 11.56,
31.523006439208984,1.00, -0.01, 0.08, -2.38, -3.17, 0.92, 34.38, 40.09, 9.90,
31.633041620254517,1.00, -0.01, 0.09, -2.87, -2.08, 0.55, 34.62, 39.97, 9.99,
31.742818117141724,0.99, 0.00, 0.08, -1.89, -1.89, 1.89, 35.08, 40.08, 9.38,
31.851590156555176,0.99, -0.00, 0.09, 0.67, 0.37, 1.16, 35.08, 40.06, 8.67,
31.962467908859253,1.00, 0.00, 0.09, -0.55, 2.01, 0.37, 35.00, 39.34, 9.42,
32.071523904800415,0.99, 0.01, 0.08, 2.44, 3.91, 0.12, 35.17, 39.76, 10.94,
32.182324171066284,1.02, 0.00, 0.07, 3.66, 3.30, 0.73, 35.38, 39.58, 10.41,
32.29216289520264,1.00, 0.01, 0.06, 3.42, 2.20, -0.12, 35.52, 39.20, 11.32,
32.40173959732056,1.00, 0.02, 0.05, 4.88, 2.20, 0.31, 35.51, 39.27, 11.88,
32.511518239974976,1.00, 0.01, 0.03, 3.91, 0.79, -0.31, 35.63, 39.45, 12.12,
32.62124967575073,1.00, 0.03, 0.01, 2.69, 1.53, 0.18, 35.23, 39.27, 12.08,
32.73017454147339,1.01, 0.02, 0.00, 3.11, -0.98, -0.79, 35.10, 38.79, 13.18,
32.83964490890503,1.00, 0.00, 0.01, 3.60, -1.46, 0.85, 35.08, 39.61, 12.85,
32.94973611831665,1.01, -0.01, 0.03, 3.23, -5.07, 3.60, 35.02, 39.27, 12.83,
33.059577226638794,1.01, 0.01, 0.04, 2.01, -5.74, 5.00, 34.92, 38.88, 12.52,
33.17072868347168,1.00, 0.02, 0.05, 4.52, -4.76, 7.93, 35.44, 38.82, 12.54,
33.28154945373535,1.01, 0.04, 0.07, 4.52, -6.59, 8.61, 35.41, 38.21, 12.60,
33.391316175460815,0.99, 0.07, 0.09, -1.89, -8.97, 8.42, 35.12, 37.82, 13.07,
33.5009503364563,1.00, 0.12, 0.13, 2.32, -8.12, 10.19, 36.08, 36.84, 12.21,
33.610276222229004,0.98, 0.14, 0.16, 3.85, -5.31, 10.13, 36.36, 35.31, 12.43,
33.72143507003784,0.97, 0.16, 0.16, 4.58, -4.15, 8.67, 36.85, 35.25, 13.01,
33.83149766921997,0.93, 0.17, 0.17, 4.88, 1.77, 4.70, 36.61, 34.75, 12.19,
33.94052243232727,0.99, 0.25, 0.15, 7.51, 6.65, 2.50, 37.08, 34.48, 13.89,
34.050950050354004,1.01, 0.22, 0.14, 9.83, -0.55, 1.65, 36.63, 34.25, 13.21,
34.161529302597046,0.97, 0.22, 0.13, -8.61, -0.73, -1.77, 36.95, 34.29, 14.26,
34.2720422744751,0.99, 0.28, 0.13, -15.01, 0.43, -8.67, 36.91, 34.66, 13.85,
34.38261914253235,0.98, 0.21, 0.14, -3.91, -6.41, -12.39, 36.79, 34.58, 13.45,
34.492138624191284,0.90, 0.17, 0.13, 4.88, 1.89, -19.35, 35.78, 36.39, 12.43,
34.60059833526611,0.98, -0.05, 0.12, -11.96, 5.31, -27.28, 36.02, 37.60, 12.01,
34.71195435523987,1.17, 0.02, 0.16, -0.18, -4.21, -15.69, 34.55, 39.92, 12.37,
34.82263898849487,0.87, -0.10, 0.10, 1.53, 8.67, -5.00, 34.28, 40.70, 11.06,
34.933396100997925,0.92, -0.10, 0.06, 16.54, -8.91, -9.28, 33.79, 41.17, 11.69,
35.04327344894409,1.03, 0.01, 0.13, 4.76, -1.95, -5.49, 33.90, 41.80, 12.46,
35.153109312057495,1.01, -0.01, 0.10, -17.88, -5.13, 3.60, 33.72, 41.89, 12.22,
35.26296138763428,1.03, 0.01, 0.15, 9.16, -13.79, 4.09, 33.74, 41.75, 10.75,
35.3732750415802,0.85, -0.09, 0.15, 4.09, 10.68, 9.70, 34.80, 40.71, 12.10,
35.48300075531006,1.06, -0.04, 0.15, -4.82, -14.34, -10.74, 34.53, 40.86, 10.17,
35.594422817230225,0.95, -0.02, 0.16, -1.40, -5.43, -3.48, 34.03, 41.81, 10.21,
35.70376968383789,0.96, -0.05, 0.22, -5.55, 0.37, -1.46, 34.05, 41.80, 8.73,
35.81420946121216,1.01, -0.02, 0.20, -4.64, -5.49, -0.92, 33.47, 41.31, 9.19,
35.9250910282135,0.96, -0.02, 0.22, 0.49, -2.56, 0.00, 33.17, 41.75, 9.33,
36.0349485874176,0.98, -0.02, 0.21, -0.12, 0.55, 0.12, 33.29, 41.76, 7.60,
36.14519286155701,0.99, -0.01, 0.20, 0.12, -1.40, 0.67, 33.47, 41.14, 8.94,
36.25419211387634,0.97, -0.03, 0.20, 0.92, 1.40, 1.46, 33.54, 41.00, 8.18,
36.36350345611572,0.99, -0.02, 0.19, -0.67, 1.83, 0.31, 33.47, 41.25, 9.40,
36.47203707695007,0.98, -0.01, 0.19, 0.85, 0.49, 1.28, 34.03, 40.91, 8.72,
36.58174109458923,0.98, -0.01, 0.19, 1.83, 0.49, -0.18, 33.57, 40.56, 8.44,
36.69239163398743,0.99, -0.04, 0.17, 7.08, 0.79, 0.61, 34.30, 41.15, 9.38,
36.80130863189697,0.97, -0.06, 0.19, 16.17, -0.67, 2.32, 34.07, 41.15, 10.29,
36.91051769256592,0.99, -0.07, 0.21, 23.01, 8.67, 1.53, 33.80, 41.15, 11.93,
37.02087593078613,0.95, -0.14, 0.17, 20.39, 3.78, -2.44, 33.78, 40.94, 12.82,
37.12954044342041,0.98, -0.01, 0.14, 9.58, 3.30, -2.81, 33.47, 40.80, 14.23,
37.240169525146484,0.99, -0.03, 0.12, 4.33, 13.06, 15.44, 33.97, 40.59, 16.49,
37.349770307540894,0.98, 0.06, 0.08, 10.99, 2.62, 19.53, 34.55, 39.50, 16.31,
37.458889961242676,0.99, 0.05, 0.13, 8.24, -9.52, 15.20, 34.55, 37.74, 18.09,
37.5684700012207,0.96, 0.10, 0.14, 4.03, -11.84, 9.16, 34.90, 36.11, 18.07,
37.678011894226074,0.97, 0.14, 0.19, -6.59, -10.56, 12.15, 34.92, 36.00, 16.93,
37.78836154937744,0.99, 0.20, 0.22, -5.25, 0.24, 3.85, 35.30, 34.47, 15.87,
37.89777731895447,0.98, 0.21, 0.23, 1.04, -3.30, 0.24, 35.31, 34.63, 16.04,
38.008238315582275,0.96, 0.19, 0.23, 1.95, -1.71, -4.03, 35.47, 35.17, 16.58,
38.118287563323975,0.97, 0.20, 0.20, 0.06, 7.57, -2.44, 35.63, 35.63, 15.95,
38.227086305618286,0.91, 0.06, 0.19, -4.70, 11.90, -18.68, 35.34, 35.99, 16.02,
38.337119817733765,0.97, -0.03, 0.00, -5.86, 4.58, -9.34, 34.08, 37.08, 17.10,
38.44702076911926,1.07, 0.05, 0.15, 17.70, -11.72, 13.92, 34.47, 37.05, 17.82,
38.55704617500305,1.00, 0.00, 0.17, 17.64, -3.60, 5.74, 35.38, 35.47, 18.40,
38.66736721992493,0.99, 0.09, 0.16, 13.92, -8.30, -2.93, 35.01, 35.60, 19.02,
38.77709650993347,0.96, 0.07, 0.16, 1.28, -3.42, -2.14, 35.36, 35.57, 18.57,
38.88677215576172,1.00, 0.13, 0.17, -0.61, -2.56, -2.75, 34.47, 36.28, 18.40,
38.99742341041565,0.98, 0.07, 0.16, -1.46, 3.42, 2.75, 34.72, 35.91, 18.66,
39.10578370094299,0.98, 0.06, 0.17, 0.67, 2.14, -1.46, 35.25, 35.52, 19.87,
39.2161910533905,0.99, 0.07, 0.14, 0.31, 1.53, -1.89, 35.07, 35.44, 18.37,
39.3256561756134,0.98, 0.06, 0.14, 0.31, -0.61, -1.83, 34.86, 35.56, 19.40,
39.43510055541992,0.98, 0.05, 0.14, 0.12, -2.56, -1.65, 34.51, 35.82, 19.12,
39.544737339019775,0.99, 0.06, 0.15, -0.43, -3.36, -1.65, 34.73, 36.18, 19.70,
39.65376853942871,0.99, 0.03, 0.16, -0.85, -3.17, -0.79, 34.55, 35.58, 19.13,
39.763805627822876,0.98, 0.06, 0.17, -0.67, -3.05, -0.43, 34.39, 36.04, 19.09,
39.87402653694153,0.98, 0.06, 0.17, -1.16, -2.38, -0.24, 34.73, 36.11, 19.34,
39.983925342559814,0.99, 0.06, 0.18, -1.71, -1.53, -0.24, 34.96, 36.06, 18.84,
40.09295201301575,0.98, 0.06, 0.17, -0.37, -2.87, -0.85, 34.90, 36.13, 18.64,
40.20303702354431,0.99, 0.06, 0.19, 0.85, -3.54, -1.16, 34.41, 35.35, 19.21,
40.31329917907715,0.98, 0.06, 0.19, -1.46, -3.48, -0.79, 34.33, 35.75, 17.92,
40.422648668289185,0.98, 0.06, 0.20, 0.12, -3.05, -1.28, 34.95, 35.63, 18.59,
40.53270745277405,0.98, 0.06, 0.20, 0.67, -1.77, -0.92, 34.48, 36.50, 18.05,
40.64191222190857,0.97, 0.06, 0.20, -0.67, -0.67, -0.92, 34.36, 36.05, 17.60,
40.75239038467407,0.99, 0.04, 0.26, 0.06, 4.09, -0.79, 34.53, 36.05, 17.80,
40.86142420768738,0.98, 0.05, 0.20, -0.55, -2.38, -0.49, 34.77, 35.85, 18.59,
40.97161340713501,0.98, 0.06, 0.20, -1.22, -1.89, -0.73, 34.56, 35.86, 17.69,
41.08214783668518,0.98, 0.06, 0.20, -1.10, -1.10, -0.24, 34.20, 35.72, 17.96,
41.19109320640564,0.98, 0.06, 0.20, -0.24, 1.16, -0.06, 34.28, 35.95, 18.48,
41.30143690109253,0.97, 0.06, 0.20, 0.06, 2.01, -0.12, 34.47, 36.10, 17.50,
41.40988826751709,0.98, 0.06, 0.18, 1.95, 3.54, 1.65, 34.83, 35.75, 18.19,
41.51927614212036,0.97, 0.05, 0.18, 2.26, 2.81, 2.87, 35.02, 35.99, 18.13,
41.627721071243286,0.98, 0.05, 0.17, -0.61, 5.00, 5.80, 35.14, 35.08, 19.37,
41.73841071128845,0.98, 0.07, 0.16, -4.15, 4.39, 6.29, 35.45, 34.72, 19.07,
41.84689736366272,0.95, 0.09, 0.13, -5.43, 5.19, 5.37, 35.63, 34.67, 20.02,
41.95681309700012,1.03, 0.23, 0.18, 1.04, -2.44, 4.58, 35.13, 33.87, 19.97,
42.066102266311646,1.01, 0.11, 0.17, 1.46, -5.49, -10.56, 35.08, 34.24, 19.27,
42.17560863494873,0.97, 0.17, 0.12, -1.40, -0.43, 0.31, 34.95, 34.52, 19.41,
42.28566217422485,0.95, 0.16, 0.17, 11.05, -0.49, 0.43, 35.38, 34.59, 19.23,
42.39633536338806,1.02, 0.12, 0.14, -8.79, -6.41, 2.20, 35.93, 33.91, 19.60,
42.505406618118286,0.93, 0.09, 0.16, -11.84, -10.31, -0.37, 36.19, 33.89, 18.79,
42.61464738845825,0.99, 0.11, 0.18, -14.04, -3.30, -10.68, 35.96, 34.24, 17.90,
42.72544312477112,1.09, 0.11, 0.23, -20.02, -11.35, 1.71, 35.80, 34.58, 17.14,
42.83534240722656,0.94, 0.13, 0.20, -17.76, -4.76, 3.48, 35.91, 34.31, 13.84,
42.94298243522644,1.00, 0.09, 0.22, -7.45, -5.07, 2.14, 35.91, 33.89, 13.43,
43.05443477630615,0.96, 0.09, 0.10, -13.67, -10.80, 1.34, 35.86, 33.84, 13.32,
43.164231300354004,0.94, 0.23, 0.22, -2.14, -2.26, -2.50, 35.69, 34.29, 12.16,
43.272589921951294,0.98, 0.20, 0.25, 14.89, -8.06, 9.09, 36.02, 33.92, 11.55,
43.38152599334717,0.91, 0.14, 0.29, 17.21, -3.11, 11.05, 36.71, 32.51, 13.56,
43.492265462875366,0.93, 0.18, 0.26, -1.77, 0.98, -1.71, 36.82, 32.41, 13.39,
43.60244798660278,0.97, 0.21, 0.27, -14.95, -5.07, -0.79, 37.02, 32.56, 13.46,
43.71188306808472,0.93, 0.24, 0.27, -9.22, -4.94, 1.28, 36.34, 32.90, 12.54,
43.821425914764404,0.94, 0.22, 0.29, -0.24, -3.66, 1.65, 36.61, 32.23, 11.40,
43.93100428581238,0.90, 0.21, 0.30, -1.34, 2.62, -0.79, 36.50, 32.23, 10.16,
44.04125666618347,0.93, 0.19, 0.29, -1.53, -3.17, -1.59, 36.43, 32.68, 11.16,
44.150402784347534,0.94, 0.20, 0.29, -0.37, 0.06, -1.71, 36.96, 32.28, 10.60,
44.261335134506226,0.93, 0.20, 0.28, -1.46, -1.34, -1.89, 36.36, 32.73, 10.41,
44.37098264694214,0.94, 0.21, 0.29, -0.31, -2.93, -2.32, 35.75, 32.51, 10.02,
44.48125410079956,0.93, 0.20, 0.30, -1.40, -2.08, -1.65, 36.56, 32.58, 10.21,
44.59133529663086,0.94, 0.21, 0.29, -0.55, 0.00, -1.34, 35.95, 33.17, 10.27,
44.70089316368103,0.93, 0.20, 0.29, -0.31, 2.50, -1.95, 36.13, 32.78, 10.31,
44.8111937046051,0.94, 0.19, 0.28, 0.92, 3.36, -0.98, 36.32, 33.22, 10.61,
44.9196982383728,0.94, 0.18, 0.27, -0.61, 3.17, -1.46, 36.66, 33.04, 10.97,
45.0303738117218,0.95, 0.19, 0.27, -2.69, 3.48, 0.18, 37.02, 32.65, 11.44,
45.13918113708496,0.94, 0.18, 0.26, -3.78, 2.20, -0.18, 36.98, 32.81, 11.43,
45.24794006347656,0.95, 0.21, 0.25, -3.11, 3.42, 0.55, 36.38, 32.74, 11.50,
45.3567955493927,0.95, 0.20, 0.24, -0.18, 1.28, -1.04, 37.22, 32.40, 12.30,
45.46731209754944,0.95, 0.20, 0.24, 0.55, 1.95, -0.85, 36.79, 32.92, 11.06,
45.576043367385864,0.92, 0.19, 0.16, -0.61, -3.72, -1.04, 36.63, 32.56, 11.69,
45.685625076293945,0.95, 0.15, 0.25, -2.44, 7.69, -0.55, 36.87, 32.69, 10.95,
45.795313119888306,0.94, 0.15, 0.24, -10.01, 5.98, -2.20, 36.63, 32.82, 12.61,
45.90500235557556,0.95, 0.23, 0.19, -9.89, 17.88, 0.12, 36.38, 32.54, 12.01,
46.015143632888794,0.96, 0.26, 0.21, -4.88, 15.81, -0.37, 36.62, 32.60, 12.74,
46.125388622283936,1.00, 0.30, 0.10, 0.92, 15.63, -5.07, 36.78, 33.24, 14.42,
46.2341411113739,0.99, 0.23, 0.10, -11.05, -0.79, -8.36, 36.39, 33.50, 15.95,
46.3457453250885,0.96, 0.21, 0.07, -28.63, -7.63, -20.32, 36.15, 34.73, 14.16,
46.456361055374146,0.98, 0.26, 0.09, -27.95, -8.42, -27.77, 35.12, 36.16, 12.13,
46.56402063369751,0.95, 0.09, 0.13, -4.76, -7.93, -36.13, 33.83, 38.84, 10.97,
46.67697882652283,1.00, -0.02, 0.14, -13.49, 6.96, -23.01, 32.26, 40.65, 10.85,
46.78640604019165,0.97, -0.08, 0.12, -23.19, 2.44, -21.36, 31.70, 41.19, 10.42,
46.89627003669739,0.99, -0.15, 0.12, -34.24, 8.06, -16.05, 30.76, 42.54, 8.37,
47.00595951080322,1.00, -0.15, 0.10, -23.38, 7.69, -9.89, 30.36, 42.66, 6.51,
47.11641502380371,0.96, -0.18, 0.07, -4.52, -2.14, -4.52, 30.16, 42.88, 6.49,
47.225911378860474,0.99, -0.24, 0.11, -2.62, -8.42, -8.61, 29.85, 42.83, 5.58,
47.33593416213989,1.02, -0.11, 0.14, 2.69, -10.01, -9.09, 28.58, 43.71, 5.32,
47.44610095024109,0.90, -0.15, 0.12, 13.55, -2.08, 9.09, 28.10, 44.21, 4.88,
47.55639719963074,1.01, -0.19, 0.14, 19.78, -5.92, 1.10, 28.97, 44.42, 5.80,
47.66584634780884,0.96, -0.22, 0.19, 20.75, -8.91, -5.00, 28.21, 45.56, 6.92,
47.77631735801697,1.00, -0.20, 0.13, 9.58, -7.57, -6.53, 27.86, 45.54, 7.30,
47.88549184799194,0.97, -0.15, 0.15, 1.16, -2.38, 1.95, 28.08, 46.22, 7.60,
47.99547052383423,0.97, -0.16, 0.15, -3.91, 0.67, 5.62, 27.94, 45.79, 6.81,
48.104615926742554,0.98, -0.13, 0.16, -8.67, 2.20, 4.94, 28.05, 45.59, 7.39,
48.21468472480774,0.98, -0.13, 0.15, -14.95, 6.35, 4.15, 28.39, 44.75, 7.34,
48.324984312057495,0.98, -0.13, 0.13, -13.18, 6.96, -0.43, 28.87, 43.99, 6.56,
48.4350802898407,1.01, -0.12, 0.13, -4.88, 3.72, 0.00, 29.91, 43.92, 5.10,
48.5446195602417,0.97, -0.13, 0.12, -2.26, -1.40, 0.06, 29.87, 44.15, 5.51,
48.655080795288086,1.00, -0.14, 0.13, 6.04, -2.38, -2.69, 29.50, 43.99, 6.81,
48.76417660713196,0.98, -0.15, 0.15, 9.77, -5.62, -3.36, 28.58, 44.07, 6.57,
48.8726441860199,0.99, -0.15, 0.16, 7.14, -5.92, -2.93, 28.83, 44.35, 5.74,
48.98225259780884,0.97, -0.15, 0.15, 3.30, -2.69, -1.71, 28.45, 44.56, 7.21,
49.09276795387268,0.99, -0.15, 0.15, 0.67, -0.67, -0.92, 28.37, 44.62, 7.98,
49.20293617248535,0.98, -0.13, 0.14, -0.79, 2.87, 0.18, 28.14, 45.15, 7.04,
49.31302332878113,0.97, -0.15, 0.13, 0.24, 2.87, 0.73, 28.72, 44.68, 7.45,
49.4222412109375,0.98, -0.16, 0.14, -0.43, 3.23, -1.10, 28.93, 44.56, 7.29,
49.53102922439575,0.98, -0.15, 0.13, -3.23, 1.65, -0.49, 28.91, 44.64, 7.58,
49.64016366004944,0.98, -0.16, 0.13, -1.95, 0.61, -1.53, 29.11, 45.18, 8.20,
49.749643325805664,0.99, -0.16, 0.14, -0.67, -1.77, -2.38, 28.70, 44.91, 7.01,
49.86010551452637,0.99, -0.16, 0.13, 2.56, -3.60, -2.32, 28.60, 45.01, 7.71,
49.968989610672,0.98, -0.16, 0.14, 3.60, -4.03, -2.08, 28.16, 45.29, 7.80,
50.078399896621704,0.97, -0.17, 0.15, 2.14, -2.26, -0.98, 28.42, 46.23, 7.73,
50.18935585021973,0.98, -0.16, 0.15, 0.61, -1.34, -0.61, 27.87, 45.74, 7.12,
50.29908275604248,0.97, -0.16, 0.15, -1.04, 1.28, 0.43, 28.53, 45.50, 7.62,
50.4085054397583,0.98, -0.17, 0.14, -2.44, 4.46, 0.12, 28.42, 45.53, 8.31,
50.5182363986969,0.98, -0.17, 0.14, -2.69, 0.92, -0.61, 28.91, 45.20, 8.41,
50.62836170196533,0.99, -0.16, 0.14, -0.98, -1.10, -0.18, 28.16, 44.93, 7.63,
50.73937249183655,0.98, -0.16, 0.15, 0.85, -3.54, 0.31, 28.52, 44.82, 7.97,
50.84841966629028,0.98, -0.17, 0.16, 0.98, -3.72, 0.37, 28.72, 44.82, 6.88,
50.957714796066284,0.97, -0.15, 0.16, -0.73, -2.56, 0.00, 28.19, 44.76, 7.40,
51.06786775588989,0.98, -0.14, 0.15, -1.16, -0.49, 0.73, 28.31, 45.39, 6.62,
51.17726254463196,0.98, -0.14, 0.15, 0.67, -0.92, 0.79, 28.69, 44.97, 7.21,
51.286667585372925,0.98, -0.14, 0.15, 0.98, 1.46, 1.89, 28.80, 45.10, 6.95,
51.396273374557495,0.99, -0.14, 0.15, -4.52, 0.18, 0.12, 29.17, 44.23, 7.04,
51.505887269973755,0.97, -0.14, 0.14, -9.22, 2.14, -0.79, 28.96, 44.40, 7.07,
51.616349935531616,0.97, -0.12, 0.13, -8.42, 3.11, -3.42, 29.80, 44.18, 6.80,
51.726364850997925,0.98, -0.13, 0.13, -5.80, 6.59, -3.97, 28.99, 44.58, 7.19,
51.837316036224365,0.99, -0.14, 0.11, 1.71, 8.06, -4.76, 29.38, 44.56, 6.79,
51.94707989692688,1.00, -0.22, 0.11, 8.85, 1.34, -3.97, 28.86, 45.43, 7.50,
52.05698299407959,1.01, -0.21, 0.13, 16.78, 1.22, -2.56, 29.02, 45.91, 7.65,
52.166269063949585,0.95, -0.22, 0.09, 31.56, -3.48, 3.91, 28.86, 45.75, 9.53,
52.275129556655884,0.98, -0.29, 0.08, 51.70, -10.25, 19.90, 29.31, 45.92, 10.93,
52.385231733322144,0.94, -0.22, 0.11, 24.23, -10.50, 28.56, 31.42, 44.51, 13.75,
52.494534730911255,0.98, -0.05, 0.11, 6.41, -7.87, 33.69, 32.37, 43.24, 15.15,
52.6046245098114,0.96, 0.04, 0.16, 6.71, -4.70, 34.73, 34.30, 38.24, 15.41,
52.71403384208679,0.97, 0.08, 0.16, 4.27, 0.85, 28.63, 35.78, 36.72, 15.95,
52.82255244255066,0.89, 0.19, 0.11, 3.54, 2.75, 25.82, 37.02, 35.41, 15.19,
52.93281316757202,1.10, 0.30, 0.08, -4.09, 11.78, 18.07, 37.65, 32.46, 16.59,
53.04196071624756,0.93, 0.23, 0.11, -6.65, -14.40, -11.84, 37.56, 32.90, 15.22,
53.15227437019348,0.99, 0.29, 0.09, -19.35, 1.71, -16.66, 37.41, 34.38, 15.43,
53.26203203201294,1.00, 0.12, 0.17, -10.80, -21.67, -12.45, 37.12, 35.01, 14.25,
53.37181615829468,0.97, 0.14, 0.13, 5.19, 16.17, -6.65, 36.35, 35.86, 13.43,
53.481711626052856,0.98, 0.07, 0.17, 6.53, -18.62, -9.09, 35.64, 36.52, 13.95,
53.59304428100586,0.98, 0.06, 0.16, 3.54, 5.31, -3.05, 34.94, 36.73, 14.49,
53.70216131210327,0.98, 0.05, 0.16, 5.74, 0.55, -2.69, 35.28, 37.12, 13.43,
53.81149744987488,0.98, 0.06, 0.15, 3.11, 1.40, 0.49, 34.85, 36.95, 15.48,
53.9214723110199,0.99, 0.07, 0.16, -0.06, 0.98, 2.62, 35.07, 37.73, 13.89,
54.03072237968445,0.99, 0.08, 0.15, -3.91, 2.20, 2.08, 35.71, 37.21, 15.10,
54.139339447021484,0.99, 0.09, 0.15, -4.82, -1.71, -0.06, 35.52, 37.05, 14.92,
54.25039482116699,1.00, 0.10, 0.16, -3.05, -5.07, -2.99, 35.23, 36.88, 13.99,
54.36033892631531,0.97, 0.10, 0.16, 3.23, -6.29, -4.58, 35.34, 37.56, 14.89,
54.46860885620117,0.98, 0.10, 0.17, 5.25, -1.65, -5.00, 35.02, 37.35, 13.60,
54.578593015670776,0.98, 0.08, 0.18, 3.23, -0.43, -5.74, 34.86, 37.61, 14.07,
54.68918061256409,0.99, 0.06, 0.18, -1.10, 0.43, -8.00, 33.98, 38.16, 13.90,
54.7981162071228,1.04, 0.04, 0.21, -3.78, -6.16, -9.58, 34.34, 39.15, 13.44,
54.90773797035217,0.94, 0.05, 0.20, 0.18, -36.68, -6.47, 34.02, 39.01, 11.11,
55.018123388290405,0.93, -0.01, 0.27, 1.89, -9.89, -6.23, 33.50, 39.79, 10.50,
55.127686738967896,0.97, -0.07, 0.27, -0.92, 3.11, -2.75, 33.02, 40.82, 9.80,
55.23823356628418,0.92, -0.10, 0.22, -4.46, 11.54, 3.17, 33.46, 40.45, 9.73,
55.34727716445923,1.02, -0.04, 0.22, -0.24, 17.27, 7.87, 33.67, 39.76, 10.51,
55.45823645591736,0.97, -0.02, 0.18, 21.12, 10.99, 10.62, 34.16, 39.06, 13.40,
55.56734490394592,0.99, -0.05, 0.16, 34.00, 2.81, 11.29, 35.53, 38.59, 14.73,
55.67732906341553,1.03, -0.08, 0.17, 28.63, -4.39, 8.48, 35.95, 37.74, 16.47,
55.786725997924805,0.94, 0.00, 0.20, 15.81, -4.33, 10.99, 36.71, 36.60, 17.77,
55.89594793319702,0.86, 0.05, 0.15, 20.20, 9.70, 15.56, 36.43, 35.42, 18.05,
56.00450277328491,1.13, 0.27, 0.17, 30.70, 13.49, 24.66, 37.11, 34.48, 18.36,
56.11341214179993,0.98, 0.11, 0.21, 26.43, 6.35, 3.54, 37.82, 32.10, 21.48,
56.222930908203125,0.95, 0.19, 0.16, 3.85, -3.42, -4.64, 37.55, 31.69, 22.84,
56.331502199172974,1.00, 0.22, 0.14, 2.50, -9.09, 2.50, 37.33, 32.10, 22.14,
56.44055986404419,1.03, 0.08, 0.24, 2.56, -12.70, 5.92, 37.82, 31.53, 21.51,
56.55004620552063,0.94, 0.03, 0.25, -16.30, -8.12, -5.37, 38.29, 31.38, 20.98,
56.66040539741516,0.99, 0.13, 0.24, -26.98, -6.35, -5.25, 38.18, 32.21, 20.19,
56.77133297920227,0.94, 0.14, 0.23, -19.41, -5.19, -2.14, 37.38, 32.52, 18.74,
56.879318952560425,0.97, 0.13, 0.24, -2.75, -1.16, 2.93, 38.10, 32.86, 17.59,
56.98979735374451,0.95, 0.14, 0.24, 3.23, 0.24, -0.24, 37.96, 32.57, 17.70,
57.099793910980225,0.97, 0.13, 0.25, 8.06, 1.83, -0.55, 37.94, 32.45, 18.04,
57.20918798446655,0.97, 0.11, 0.23, 9.28, 1.71, -3.72, 37.65, 32.28, 19.03,
57.3187415599823,0.97, 0.10, 0.22, 2.69, 0.31, -3.78, 36.93, 32.45, 18.93,
57.4289813041687,0.98, 0.10, 0.23, -2.44, 0.67, -4.21, 37.49, 32.82, 18.37,
57.53810429573059,0.97, 0.10, 0.23, -4.09, -0.31, -4.15, 36.89, 33.18, 18.24,
57.647326707839966,0.98, 0.10, 0.23, -2.38, -2.81, -1.16, 37.26, 33.23, 18.87,
57.75760316848755,0.96, 0.11, 0.23, 0.73, -1.83, -0.18, 37.46, 32.80, 17.83,
57.86712408065796,0.97, 0.10, 0.21, 0.18, 0.31, -0.18, 36.99, 32.81, 19.01,
57.97563886642456,0.96, 0.12, 0.23, -0.24, 2.50, -1.53, 37.11, 32.56, 18.48,
58.08570337295532,0.98, 0.10, 0.22, 1.34, 4.21, -4.76, 37.43, 33.46, 19.01,
58.195491313934326,1.00, 0.08, 0.20, -7.02, 4.15, -3.60, 36.66, 33.97, 18.41,
58.30618929862976,0.95, 0.07, 0.19, -8.97, 5.43, 0.31, 36.98, 34.50, 19.12,
58.41579556465149,0.98, 0.09, 0.19, -5.07, -1.77, 0.00, 37.01, 34.05, 19.30,
58.525623083114624,1.00, 0.12, 0.18, 0.31, -1.34, -0.06, 36.84, 34.20, 18.82,
58.636123180389404,1.01, 0.07, 0.21, -2.93, -3.78, -0.49, 36.69, 33.85, 18.71,
58.74588370323181,0.97, 0.12, 0.20, 0.00, -5.98, -4.46, 37.56, 33.95, 17.97,
58.85591125488281,0.96, 0.07, 0.20, -2.38, -1.28, 0.24, 36.28, 34.09, 17.76,
58.965267181396484,0.98, 0.09, 0.21, -1.28, 0.06, -3.23, 37.16, 34.19, 17.86,
59.07494378089905,0.97, 0.09, 0.20, 1.04, 0.73, -1.34, 36.07, 34.52, 19.43,
59.18374681472778,0.98, 0.08, 0.20, -0.73, 1.95, -1.71, 35.80, 34.67, 18.66,
59.2938756942749,0.98, 0.08, 0.20, -2.20, 2.14, 0.49, 36.11, 34.18, 19.14,
59.40373349189758,1.00, 0.09, 0.19, -3.78, 2.56, 1.40, 36.41, 34.13, 18.01,
59.512951374053955,0.96, 0.07, 0.17, -4.70, 5.07, 0.61, 36.54, 34.53, 19.10,
59.62225580215454,1.01, 0.09, 0.16, -8.67, 4.70, 0.79, 36.32, 34.74, 20.57,
59.731916427612305,0.98, 0.07, 0.16, -9.52, 4.64, -2.26, 36.06, 34.17, 18.85,
59.84228587150574,0.99, 0.11, 0.13, -12.57, 5.86, -3.60, 35.46, 34.69, 19.93,
59.95108509063721,0.99, 0.13, 0.12, -22.03, 4.21, -1.89, 35.75, 35.17, 18.44,
60.06034970283508,0.99, 0.11, 0.11, -42.91, 0.61, 2.01, 35.56, 34.53, 18.48,
60.1694118976593,0.97, 0.23, 0.08, -51.94, -10.38, -8.91, 35.94, 35.25, 16.43,
60.279497146606445,0.96, 0.20, 0.07, -28.20, -3.48, -16.60, 35.01, 36.47, 14.17,
60.38981056213379,0.92, 0.08, 0.04, 10.38, 1.71, -13.31, 34.57, 36.76, 14.34,
60.4987428188324,1.02, -0.03, 0.08, -0.12, 2.99, -10.74, 34.39, 37.73, 13.62,
60.60755491256714,0.99, -0.04, 0.09, -18.07, 2.14, -16.60, 33.46, 39.16, 12.93,
60.717172384262085,1.06, -0.05, 0.11, -6.16, -14.22, -8.73, 32.32, 40.81, 12.18,
60.82699418067932,0.97, -0.07, 0.13, -5.43, -8.30, -8.85, 31.97, 40.93, 10.63,
60.93674635887146,0.99, -0.10, 0.19, 0.79, -4.58, -4.27, 31.62, 41.43, 10.94,
61.04697394371033,0.98, -0.12, 0.14, 13.55, -8.67, -3.97, 31.95, 41.76, 10.23,
61.157490730285645,0.96, -0.13, 0.15, 26.49, -11.60, 11.29, 32.02, 41.97, 10.00,
61.26726222038269,1.08, -0.05, 0.25, 17.64, -8.36, 13.06, 32.15, 40.77, 11.62,
61.376240968704224,0.81, 0.12, 0.19, 2.87, -17.88, 31.07, 33.03, 40.12, 11.34,
61.48693299293518,1.20, 0.14, 0.39, 5.55, 19.29, 30.76, 35.01, 37.19, 11.88,
61.59547019004822,0.93, 0.07, 0.25, -2.93, -24.11, -11.11, 35.19, 37.08, 12.32,
61.70453667640686,0.93, 0.18, 0.15, 6.77, 14.47, -0.61, 34.59, 37.08, 11.43,
61.81512761116028,1.02, 0.08, 0.18, 1.65, 14.28, 2.50, 34.59, 36.56, 13.22,
61.925280809402466,0.96, 0.09, 0.15, -0.98, -9.28, -1.40, 34.83, 37.07, 14.93,
62.03346109390259,0.98, 0.12, 0.16, 1.65, 5.92, 0.98, 34.53, 36.83, 14.07,
62.142804861068726,0.98, 0.10, 0.19, 0.61, 3.72, -1.16, 34.63, 36.24, 14.66,
62.25171136856079,1.00, 0.13, 0.14, 0.49, 10.74, -0.73, 34.69, 36.49, 15.21,
62.36161780357361,0.98, 0.14, 0.20, 2.08, -4.70, 3.54, 35.30, 36.57, 16.27,
62.47216439247131,1.00, 0.12, 0.15, 1.28, -0.92, 2.08, 34.95, 36.00, 15.14,
62.58150625228882,0.97, 0.11, 0.13, 4.52, 4.03, 0.92, 34.51, 35.93, 15.05,
62.690592765808105,0.98, 0.10, 0.11, 2.08, 4.21, -0.73, 35.11, 35.85, 15.64,
62.800658226013184,1.00, 0.04, 0.13, -8.30, -6.53, 8.30, 35.60, 35.12, 15.64,
62.911271810531616,1.01, 0.13, 0.14, -3.30, 3.85, -0.61, 35.69, 34.89, 15.58,
63.020936250686646,0.99, 0.13, 0.15, -4.33, -2.08, 0.43, 35.97, 35.19, 16.03,
63.13117837905884,1.02, 0.13, 0.10, -8.85, 1.16, 2.87, 35.45, 35.10, 15.26,
63.241015672683716,0.92, 0.11, 0.08, 5.00, -4.88, -0.31, 35.84, 34.69, 14.97,
63.34973478317261,1.01, 0.12, 0.15, 8.73, 4.94, -3.85, 35.23, 34.42, 14.14,
63.45880699157715,0.99, 0.13, 0.10, -0.06, 3.85, -0.37, 35.63, 35.08, 16.22,
63.56785249710083,0.99, 0.13, 0.11, -0.85, 0.79, -1.16, 35.63, 35.00, 16.36,
63.677772760391235,0.99, 0.12, 0.11, 1.40, -0.49, -0.73, 35.68, 34.86, 17.43,
63.78820514678955,0.98, 0.12, 0.11, 0.55, 2.50, -1.40, 35.72, 35.34, 16.39,
63.89718413352966,0.99, 0.11, 0.10, 0.37, 2.75, -1.04, 36.00, 35.08, 16.31,
64.00606489181519,0.98, 0.12, 0.08, -1.59, -9.40, -1.10, 35.25, 35.10, 17.25,
64.11702942848206,1.00, 0.11, 0.12, -15.50, -1.28, -0.98, 35.33, 35.00, 16.99,
64.22723960876465,0.99, 0.12, 0.12, -2.62, 0.55, 1.04, 35.84, 35.11, 16.27,
64.33639717102051,0.98, 0.13, 0.12, -0.79, 4.39, -1.22, 35.27, 34.58, 16.10,
64.44682765007019,0.99, 0.11, 0.11, -1.71, 10.56, -3.97, 35.21, 34.74, 16.30,
64.55683875083923,1.00, 0.13, 0.08, -0.98, -4.33, -3.05, 35.34, 34.55, 16.41,
64.66703748703003,0.99, 0.10, 0.11, 3.23, -0.18, -1.95, 35.78, 34.89, 16.76,
64.77691793441772,0.99, 0.12, 0.09, 0.98, 3.42, -3.05, 35.36, 35.33, 16.71,
64.886150598526,1.02, 0.09, 0.12, -0.12, 3.97, -4.64, 35.33, 35.02, 16.43,
64.99587178230286,0.98, 0.11, 0.08, -5.43, 4.46, -6.59, 34.72, 35.94, 16.71,
65.10596132278442,1.04, 0.07, 0.08, 0.79, -1.10, -13.37, 33.78, 36.21, 16.42,
65.21574878692627,1.00, 0.04, 0.04, -2.69, -0.31, -9.64, 33.37, 36.90, 16.27,
65.32442378997803,1.02, 0.02, 0.04, -10.07, -7.02, -8.30, 33.35, 37.61, 16.21,
65.4347767829895,0.97, 0.03, 0.08, -10.99, -17.33, -9.40, 33.04, 38.07, 14.42,
65.54444122314453,0.89, -0.01, 0.14, -10.86, -16.17, 1.22, 32.68, 37.34, 12.63,
65.65495872497559,1.02, -0.03, 0.18, -8.67, -7.81, -4.09, 32.79, 37.82, 11.34,
65.76495265960693,0.93, 0.00, 0.17, -11.66, -3.17, 1.83, 32.80, 37.74, 10.34,
65.8746817111969,1.04, -0.02, 0.19, -11.29, 1.46, -1.40, 32.69, 37.50, 11.66,
65.98327732086182,0.96, 0.03, 0.15, -13.00, 3.36, -3.72, 33.07, 37.55, 10.64,
66.09192276000977,1.03, 0.04, 0.17, 6.77, 2.01, 1.71, 32.29, 37.84, 11.22,
66.20256090164185,0.97, 0.01, 0.15, 10.25, 5.80, -2.87, 32.06, 37.67, 9.81,
66.31187701225281,1.00, 0.00, 0.15, 7.32, 0.61, -2.38, 31.99, 38.40, 12.07,
66.4225172996521,0.99, -0.01, 0.15, 2.50, 3.42, 0.00, 33.00, 38.01, 12.08,
66.53209853172302,1.00, -0.01, 0.15, -3.42, 1.46, -2.93, 32.62, 38.21, 12.46,
66.6416323184967,1.04, 0.01, 0.15, -6.04, 8.73, 0.61, 32.96, 38.73, 12.06,
66.75291156768799,0.95, -0.02, 0.11, -11.78, 14.83, 7.14, 32.67, 38.39, 12.88,
66.86290526390076,0.98, -0.04, 0.06, -5.37, 7.57, 4.03, 33.06, 37.65, 13.20,
66.97271871566772,1.06, -0.00, 0.07, 15.01, -3.17, -3.11, 32.75, 38.28, 14.49,
67.08312773704529,1.00, 0.01, 0.09, 15.63, 0.12, 3.78, 32.62, 37.37, 13.95,
67.19192218780518,0.88, -0.01, 0.06, 3.17, 8.36, 6.47, 33.04, 36.82, 15.80,
67.30079817771912,1.20, 0.25, 0.03, -0.31, 8.67, 12.82, 33.26, 36.45, 15.53,
67.41027235984802,0.97, 0.05, 0.08, -9.22, -4.15, -2.50, 33.75, 35.80, 15.95,
67.52015924453735,0.97, 0.20, 0.04, -38.51, -1.40, -9.58, 33.79, 36.29, 14.71,
67.6303927898407,1.05, 0.30, 0.06, -30.82, -5.31, 0.67, 33.54, 36.67, 13.46,
67.73967456817627,0.92, 0.06, 0.04, 4.76, -4.03, -1.34, 34.14, 36.10, 11.82,
67.84884476661682,1.01, 0.00, 0.08, -5.31, -5.86, -13.18, 33.31, 36.95, 10.97,
67.96014475822449,0.86, -0.07, 0.07, -34.18, -2.14, -20.51, 32.65, 37.72, 10.31,
68.06925940513611,1.16, -0.05, 0.00, -39.79, 8.24, -23.74, 32.30, 39.43, 7.40,
68.18001770973206,0.88, -0.11, 0.09, -3.23, -13.06, -9.34, 31.88, 39.67, 6.70,
68.28975009918213,1.12, -0.01, 0.19, 1.22, -8.54, -14.83, 31.41, 39.69, 6.67,
68.39875388145447,0.89, -0.13, 0.14, 0.31, 2.44, -1.34, 30.53, 40.94, 5.79,
68.50797057151794,1.05, -0.14, 0.14, -2.81, 1.16, 7.26, 30.69, 40.14, 5.77,
68.61705589294434,0.96, -0.13, 0.13, -9.64, 2.56, 4.15, 31.56, 39.64, 4.71,
68.7255265712738,1.00, -0.12, 0.13, -7.26, -2.08, -5.31, 31.32, 39.29, 4.90,
68.83448672294617,0.98, -0.08, 0.12, 4.82, -1.34, -5.13, 31.24, 40.17, 5.52,
68.94344019889832,1.00, -0.08, 0.11, 5.07, -2.81, 2.32, 31.01, 40.58, 5.69,
69.05280709266663,1.00, -0.08, 0.13, 2.56, -3.30, 5.49, 30.86, 40.52, 5.74,
69.16148018836975,1.00, -0.07, 0.15, 0.24, -3.78, 8.85, 31.56, 39.72, 5.48,
69.27157402038574,0.98, -0.05, 0.14, -1.71, -2.56, 3.78, 32.18, 38.99, 4.77,
69.38075494766235,0.99, -0.06, 0.15, -1.65, -1.59, -0.43, 32.54, 39.37, 5.51,
69.49034142494202,1.00, -0.05, 0.14, -1.16, -2.32, -0.31, 31.99, 38.78, 4.38,
69.600745677948,0.98, -0.05, 0.15, 1.71, -2.87, 1.89, 31.71, 39.07, 5.55,
69.70967984199524,1.00, -0.05, 0.16, 0.49, -3.23, 1.34, 31.88, 39.14, 4.20,
69.81955289840698,0.98, -0.04, 0.17, -0.85, -2.44, -0.24, 31.86, 38.88, 4.50,
69.92968964576721,0.99, -0.04, 0.17, -0.61, -1.28, 0.24, 32.36, 39.11, 3.78,
70.0383608341217,0.99, -0.04, 0.17, -0.67, -2.08, 0.43, 31.96, 38.75, 3.96,
70.14792537689209,0.99, -0.03, 0.17, -1.95, -0.79, 0.85, 32.21, 38.55, 3.69,
70.25639271736145,0.99, -0.03, 0.17, -0.92, 15.56, -0.31, 32.41, 38.60, 3.14,
70.36600589752197,0.99, -0.03, 0.17, -0.12, -0.98, 0.55, 32.47, 39.25, 4.19,
70.47426748275757,0.99, -0.03, 0.17, -1.40, -1.10, 0.67, 32.78, 38.39, 3.88,
70.58358240127563,1.00, -0.02, 0.17, 1.71, -0.61, 0.79, 32.42, 38.21, 4.94,
70.69389510154724,0.98, -0.03, 0.16, 1.83, 0.67, 1.22, 32.08, 38.51, 5.08,
70.80234360694885,1.00, -0.05, 0.17, -12.21, 0.73, -1.95, 32.62, 38.61, 4.43,
70.91215229034424,1.01, -0.04, 0.17, 3.85, -1.53, -5.07, 32.20, 38.65, 3.44,
71.0223376750946,0.98, -0.05, 0.19, 3.54, -3.17, -0.73, 32.40, 39.62, 4.50,
71.13167262077332,0.99, -0.04, 0.17, 4.15, -2.01, 2.08, 32.81, 39.82, 4.81,
71.24034142494202,0.98, -0.04, 0.18, -0.55, -1.59, -1.10, 32.60, 39.97, 3.58,
71.35037279129028,0.97, -0.04, 0.19, 5.80, 0.18, -2.38, 33.09, 39.51, 4.31,
71.46023869514465,0.98, -0.06, 0.19, 6.47, 3.42, -1.95, 32.43, 40.76, 5.09,
71.56980895996094,1.00, -0.06, 0.15, -7.14, 4.82, -1.04, 32.46, 40.83, 5.40,
71.67948937416077,0.98, -0.05, 0.15, -3.11, 0.92, 1.16, 33.07, 40.27, 5.16,
71.78887891769409,1.00, -0.04, 0.17, -2.08, -0.92, -0.24, 32.54, 39.59, 5.69,
71.8979914188385,0.99, -0.04, 0.16, 2.56, 0.92, 0.00, 33.15, 39.37, 6.49,
72.0064332485199,0.98, -0.05, 0.15, -3.36, -2.50, 2.01, 33.34, 39.81, 5.80,
72.11613607406616,1.01, -0.05, 0.18, -13.73, -2.69, 4.58, 32.81, 40.15, 5.21,
72.22566342353821,1.00, -0.04, 0.17, -2.38, 0.37, -0.67, 32.84, 40.17, 5.25,
72.33612179756165,0.99, -0.03, 0.15, 1.46, 0.24, -0.55, 32.87, 39.50, 4.65,
72.4450523853302,0.99, -0.03, 0.15, 0.55, 0.18, 0.31, 33.28, 39.70, 5.76,
72.5531415939331,0.99, -0.04, 0.15, -2.14, -0.24, 0.31, 33.75, 39.81, 3.86,
72.66236543655396,0.99, -0.03, 0.15, -2.93, 0.79, -0.61, 33.23, 39.69, 4.79,
72.77265429496765,0.99, -0.03, 0.14, -1.16, 0.67, -0.49, 32.79, 39.64, 4.69,
72.88262343406677,0.99, -0.04, 0.16, -0.55, 2.75, 0.55, 33.42, 39.56, 5.54,
72.99250745773315,1.00, -0.05, 0.15, -1.95, 1.28, 1.71, 32.98, 40.10, 6.01,
73.10152816772461,1.00, -0.04, 0.13, -0.67, -0.31, 6.47, 33.89, 39.48, 5.77,
73.21108889579773,0.99, -0.02, 0.17, 5.13, 0.31, 9.52, 33.75, 39.33, 5.83,
73.31958413124084,0.98, -0.05, 0.15, 11.11, -2.62, 9.89, 34.33, 38.65, 5.92,
73.42965841293335,1.05, -0.02, 0.14, 12.08, -0.55, 1.83, 33.95, 38.90, 7.91,
73.53962683677673,0.94, 0.02, 0.13, 10.31, 2.32, 10.07, 33.59, 37.88, 7.26,
73.649418592453,1.01, 0.06, 0.12, 10.56, 5.19, 4.94, 34.67, 37.94, 9.58,
73.7599036693573,0.99, 0.07, 0.12, 18.86, 2.44, 6.71, 34.41, 37.40, 10.49,
73.86949253082275,0.97, 0.06, 0.14, 24.90, 1.28, 9.03, 35.19, 37.23, 11.89,
73.97995615005493,0.98, 0.08, 0.14, 18.01, 7.02, 10.99, 35.66, 36.76, 12.44,
74.08863019943237,0.99, 0.16, 0.10, 14.77, 8.30, 8.91, 35.51, 36.07, 14.92,
74.19729328155518,1.04, 0.23, 0.09, 11.47, -2.14, 5.31, 35.35, 35.68, 15.67,
74.30745100975037,0.95, 0.17, 0.13, 4.09, -10.74, -1.16, 35.79, 35.44, 15.82,
74.41874289512634,1.04, 0.18, 0.18, -14.59, 3.97, 2.14, 36.12, 35.03, 15.05,
74.52777457237244,0.91, 0.15, 0.10, -4.39, 27.53, -6.96, 35.52, 35.51, 15.44,
74.63906168937683,0.97, 0.14, 0.06, 11.66, 4.03, -5.07, 35.62, 35.41, 17.02,
74.74830842018127,1.06, 0.14, 0.04, 10.13, 9.83, -0.73, 35.77, 35.67, 17.18,
74.85894894599915,0.98, 0.13, 0.05, 2.56, -4.88, -9.58, 35.29, 35.67, 17.87,
74.9691812992096,0.99, 0.16, 0.08, -2.01, -8.79, -5.98, 34.84, 36.91, 16.80,
75.080331325531,0.95, 0.05, 0.11, -2.93, -2.01, -11.47, 34.74, 37.17, 16.69,
75.18975186347961,1.02, 0.04, 0.10, -7.45, -2.08, -11.41, 34.13, 37.76, 14.95,
75.29986906051636,0.97, 0.03, 0.11, -10.25, -1.83, -8.73, 34.24, 38.92, 15.01,
75.40916228294373,1.00, -0.01, 0.10, -10.38, 2.44, -5.13, 33.87, 39.44, 14.51,
75.51883721351624,1.01, -0.02, 0.08, -11.60, 4.21, -7.02, 34.07, 40.32, 13.95,
75.62943625450134,0.98, -0.05, 0.07, 1.77, 3.54, -2.08, 33.89, 40.61, 13.17,
75.73995661735535,1.01, -0.12, 0.06, -7.81, 5.19, -4.64, 34.01, 39.94, 14.55,
75.84927678108215,1.01, -0.06, 0.04, -18.19, 1.77, -1.40, 33.48, 40.60, 13.67,
75.9593620300293,1.00, -0.12, 0.04, -7.08, -0.79, 3.78, 34.07, 40.83, 12.63,
76.06952357292175,1.02, -0.04, 0.03, 23.62, -6.10, 0.85, 34.17, 40.31, 12.11,
76.17932534217834,1.00, -0.04, 0.10, 33.75, -6.96, 2.75, 34.24, 40.28, 14.59,
76.28871440887451,0.99, -0.06, 0.09, 33.08, -3.36, 5.07, 34.55, 39.99, 15.03,
76.39760065078735,0.98, -0.04, 0.08, 20.20, -2.20, 7.69, 34.57, 39.27, 18.48,
76.50649428367615,1.02, 0.01, 0.10, 10.13, -7.02, 5.68, 35.08, 38.94, 16.93,
76.61650133132935,0.99, 0.01, 0.17, 8.18, -8.85, -1.71, 34.67, 37.92, 17.07,
76.72649955749512,0.98, -0.02, 0.20, -13.24, 0.31, -2.20, 34.20, 38.05, 18.10,
76.8366928100586,0.94, 0.17, 0.11, -15.44, 14.83, 23.32, 34.39, 37.52, 16.69,
76.94518256187439,1.02, 0.08, 0.10, -7.39, 2.14, 12.45, 35.31, 35.90, 17.41,
77.05601239204407,0.97, 0.13, 0.11, -3.23, 2.14, 0.67, 35.84, 35.41, 17.80,
77.16605997085571,0.99, 0.11, 0.08, -6.53, -1.77, -0.55, 34.84, 35.89, 17.83,
77.27606678009033,0.98, 0.12, 0.09, -15.01, 3.54, -7.51, 35.19, 35.78, 17.04,
77.38459801673889,1.01, 0.11, 0.09, -16.48, 3.48, -6.77, 35.13, 36.15, 16.98,
77.49515175819397,0.99, 0.08, 0.05, -5.68, 4.27, -8.73, 35.72, 36.50, 16.17,
77.60505771636963,1.00, 0.01, 0.05, -1.04, 5.13, -6.71, 34.83, 36.82, 16.10,
77.71463251113892,1.01, 0.03, 0.00, -0.37, 4.09, -6.29, 34.12, 37.28, 16.27,
77.82331490516663,1.01, 0.00, 0.03, 5.07, 3.78, -4.46, 34.24, 37.81, 17.00,
77.93395042419434,0.99, -0.01, 0.01, -2.14, 3.23, -1.95, 34.77, 38.57, 16.89,
78.04375648498535,0.98, -0.02, -0.01, -4.52, 4.39, -0.18, 33.98, 38.65, 17.59,
78.15332102775574,1.07, -0.07, -0.02, -5.37, 0.00, -1.10, 34.48, 38.38, 17.09,
78.2645754814148,0.96, -0.02, -0.00, -4.09, -4.39, 2.32, 34.30, 38.59, 17.32,
78.3749885559082,1.09, -0.01, 0.02, -0.37, -4.88, -0.31, 34.53, 38.40, 17.27,
78.4849112033844,0.95, 0.02, 0.04, 0.18, -2.56, 7.51, 34.69, 38.05, 17.47,
78.59385561943054,1.03, 0.05, 0.04, 3.54, -1.77, 7.81, 34.68, 37.38, 16.60,
78.70260524749756,0.99, 0.05, 0.05, 4.39, -3.54, 6.77, 34.57, 37.30, 16.91,
78.81298828125,1.00, 0.07, 0.05, 2.20, -1.53, 7.08, 35.14, 36.39, 17.00,
78.92193675041199,0.99, 0.09, 0.05, -2.20, 0.18, 6.90, 35.28, 36.34, 16.39,
79.03060269355774,0.97, 0.11, 0.04, -4.64, 3.42, 6.77, 35.22, 35.45, 17.11,
79.14214277267456,0.95, 0.18, 0.01, -4.82, 4.21, 6.29, 35.99, 34.75, 17.26,
79.25139427185059,1.09, 0.22, 0.02, 3.97, -1.89, 1.28, 36.39, 34.83, 18.10,
79.36149740219116,0.95, 0.21, 0.06, -0.31, -5.55, -1.95, 35.71, 34.57, 17.61,
79.47192978858948,1.02, 0.24, 0.05, -2.56, -9.40, -0.43, 36.00, 34.62, 17.33,
79.58117604255676,0.97, 0.11, 0.03, 3.60, -0.12, -6.96, 36.41, 34.50, 16.66,
79.69208192825317,0.99, 0.08, 0.02, 1.77, -0.43, -11.84, 36.15, 35.56, 17.46,
79.80094003677368,1.00, 0.07, 0.02, 2.08, -3.48, -13.73, 35.83, 36.41, 16.59,
79.91011929512024,1.00, 0.02, 0.04, 3.23, -9.03, -11.05, 34.77, 37.61, 16.36,
80.02074098587036,0.96, -0.00, 0.12, 4.09, -1.04, -10.44, 35.16, 38.70, 15.01,
80.12909936904907,1.00, 0.01, 0.10, 10.38, -0.43, -7.63, 35.07, 39.23, 15.92,
80.2398293018341,0.99, -0.01, 0.08, 4.58, 2.93, 0.73, 34.95, 39.89, 16.30,
80.34888291358948,0.98, -0.07, 0.10, 5.25, 2.38, 1.53, 34.18, 39.83, 15.63,
80.45873141288757,1.02, -0.04, 0.06, -15.63, 2.50, -15.75, 34.11, 39.87, 15.72,
80.56872200965881,0.98, -0.03, 0.06, -10.93, 0.31, -4.15, 33.95, 41.36, 16.02,
80.67927551269531,0.99, -0.11, 0.05, -8.24, 2.01, -5.92, 34.12, 41.19, 15.25,
80.7900743484497,1.00, -0.07, 0.03, -16.17, 5.25, -0.98, 33.58, 41.92, 14.66,
80.89973831176758,1.02, -0.09, 0.04, 1.22, 4.70, 5.00, 33.90, 40.97, 15.03,
81.00919365882874,1.02, -0.09, 0.04, 8.85, -10.86, 1.46, 33.98, 40.55, 13.20,
81.11994457244873,0.96, -0.07, 0.06, 9.03, -3.42, 4.70, 33.63, 41.03, 15.42,
81.228688955307,1.06, -0.06, 0.08, 2.32, -2.14, 5.25, 33.90, 40.49, 14.56,
81.33870482444763,0.92, 0.04, 0.06, -6.90, 2.50, 14.04, 34.48, 39.73, 15.93,
81.44799995422363,1.08, 0.03, 0.07, -3.23, 0.31, 16.05, 34.96, 38.71, 15.06,
81.55796527862549,0.97, 0.08, 0.06, 2.81, -4.46, 10.99, 35.73, 37.40, 16.17,
81.66795992851257,0.99, 0.09, 0.06, 6.16, -1.34, 7.26, 35.86, 37.02, 17.00,
81.77636575698853,1.00, 0.10, 0.07, 7.08, -1.83, 3.17, 36.28, 36.71, 16.04,
81.88526964187622,0.99, 0.14, 0.08, 3.36, 0.31, 5.00, 36.10, 35.79, 16.00,
81.9948959350586,0.97, 0.15, 0.05, 3.11, 1.65, 2.87, 36.24, 35.78, 16.32,
82.10389232635498,1.00, 0.16, 0.08, 11.84, 2.26, 1.71, 36.11, 35.64, 18.20,
82.21238780021667,0.98, 0.14, 0.08, 5.13, 1.28, -2.20, 36.38, 35.96, 17.77,
82.32239866256714,0.98, 0.15, 0.07, -1.53, 6.35, -6.04, 36.55, 35.73, 18.84,
82.43228530883789,0.98, 0.15, 0.06, -3.05, 0.43, -7.20, 36.35, 36.01, 18.04,
82.54221844673157,0.99, 0.12, 0.05, 0.73, -0.12, -10.01, 36.40, 35.99, 18.49,
82.65237259864807,1.00, 0.05, 0.07, -0.67, 1.04, -12.70, 35.85, 38.12, 18.49,
82.7623291015625,0.98, 0.02, 0.07, -0.49, 4.21, -12.76, 35.78, 38.20, 17.57,
82.872243642807,1.00, -0.01, 0.03, -1.16, 3.42, -9.58, 34.78, 39.94, 17.97,
82.98282814025879,1.01, -0.05, 0.02, 0.12, 2.62, -7.45, 34.41, 40.53, 18.98,
83.09291505813599,1.00, -0.08, 0.00, -0.43, 1.34, -5.00, 33.78, 40.32, 17.91,
83.20214867591858,1.00, -0.07, 0.00, 1.83, 1.65, -3.11, 33.97, 40.66, 18.07,
83.31241416931152,1.01, -0.08, 0.01, 3.36, -0.61, 0.43, 34.12, 41.09, 18.01,
83.42199420928955,1.00, -0.08, 0.01, 0.12, -0.61, 2.08, 34.89, 41.11, 19.25,
83.53211975097656,1.01, -0.05, 0.01, -2.75, -3.48, 4.27, 34.02, 40.33, 19.67,
83.6417887210846,1.00, -0.03, 0.01, -3.54, -1.10, 7.87, 34.25, 40.11, 18.10,
83.74957942962646,1.01, -0.00, 0.02, -2.14, -0.67, 6.04, 34.66, 39.18, 17.60,
83.86050701141357,1.00, 0.02, 0.03, -0.61, -2.20, 3.97, 34.27, 39.03, 17.79,
83.97072982788086,1.00, 0.04, 0.04, 1.16, -2.93, 2.99, 34.88, 39.03, 18.14,
84.08138251304626,1.00, 0.04, 0.04, 0.24, -1.40, 5.49, 35.14, 38.84, 17.91,
84.19288730621338,1.00, 0.05, 0.05, -1.16, -2.56, 2.93, 35.28, 37.84, 18.52,
84.30235075950623,0.99, 0.05, 0.05, -2.62, -1.65, 0.98, 35.00, 37.28, 18.03,
84.4139416217804,1.00, 0.06, 0.05, -4.39, 0.49, -0.55, 35.07, 37.78, 17.79,
84.52294993400574,1.00, 0.06, 0.05, -2.38, -2.01, -0.55, 35.06, 38.13, 18.05,
84.63309264183044,1.00, 0.06, 0.04, -1.65, -0.67, -1.59, 35.68, 38.02, 19.13,
84.74308729171753,1.00, 0.05, 0.04, -0.31, 2.01, -1.59, 35.30, 37.93, 17.29,
84.85295939445496,1.00, 0.05, 0.04, 0.92, 1.59, -1.95, 35.12, 38.49, 18.74,
84.96390962600708,1.00, 0.03, 0.03, 1.10, -1.71, -1.59, 34.63, 37.96, 17.96,
85.0725507736206,1.01, 0.03, 0.02, -0.37, 0.55, -2.26, 34.58, 38.07, 18.46,
85.18263411521912,1.00, 0.04, 0.01, -2.93, -7.26, -2.99, 34.92, 37.88, 17.87,
85.29261684417725,1.03, 0.05, 0.02, -3.42, -13.24, -0.12, 35.01, 38.59, 17.49,
85.40264344215393,0.94, 0.02, 0.11, -6.29, -9.77, -5.62, 35.00, 38.42, 16.17,
85.51300811767578,1.09, -0.04, 0.16, -7.32, 0.85, 3.05, 34.92, 38.10, 16.24,
85.62392282485962,0.95, 0.05, 0.12, -6.35, -2.81, -1.89, 34.75, 38.67, 14.97,
85.73357510566711,1.00, 0.03, 0.12, -4.27, -3.91, -1.59, 34.79, 39.23, 13.98,
85.84401988983154,0.99, 0.02, 0.13, -4.52, -3.30, -1.71, 34.53, 39.39, 13.16,
85.95477843284607,1.01, 0.03, 0.13, -2.62, -1.46, -2.14, 34.88, 38.96, 13.46,
86.06434059143066,0.99, 0.02, 0.13, 0.61, -1.34, -1.53, 35.01, 39.26, 13.11,
86.17507338523865,0.99, 0.02, 0.14, 0.79, 6.16, -0.55, 35.11, 39.14, 14.36,
86.28469491004944,1.00, 0.02, 0.11, 2.75, 3.30, 2.62, 34.99, 39.15, 14.44,
86.39402770996094,0.98, 0.01, 0.09, 4.27, 1.83, -1.28, 35.10, 38.71, 15.73,
86.50411796569824,1.00, 0.02, 0.07, 5.19, -6.16, 0.18, 35.36, 39.04, 14.76,
86.61330699920654,1.00, 0.01, 0.10, 1.65, 3.17, 0.12, 35.36, 38.96, 15.28,
86.72229647636414,1.00, 0.03, 0.09, 1.10, 1.40, -0.67, 35.30, 38.85, 16.37,
86.83265566825867,1.00, 0.02, 0.09, 0.31, -1.28, -0.06, 34.91, 38.76, 15.83,
86.94172358512878,1.00, 0.03, 0.09, 0.67, 0.67, -0.31, 35.35, 38.87, 15.45,
87.05063223838806,1.00, 0.03, 0.09, 2.20, 2.14, 0.55, 35.08, 38.39, 15.14,
87.16171407699585,0.99, 0.03, 0.08, 2.01, 0.67, -1.46, 35.35, 38.77, 16.72,
87.27175235748291,0.99, 0.02, 0.08, 4.21, 1.10, -0.18, 35.66, 38.62, 16.48,
87.38064885139465,0.99, 0.02, 0.09, 2.87, 2.81, -0.92, 34.99, 38.61, 16.35,
87.49044442176819,1.00, 0.00, 0.07, 3.42, 3.54, -3.11, 34.96, 38.37, 16.25,
87.59993100166321,0.99, 0.02, 0.06, 0.79, 0.49, -4.76, 35.30, 39.04, 17.49,
87.70811104774475,1.03, -0.01, -0.01, 7.75, 13.31, 8.30, 34.88, 39.18, 18.12,
87.81885027885437,0.95, 0.03, 0.05, -0.92, 1.10, -2.87, 34.69, 39.25, 17.41,
87.92846584320068,1.00, 0.02, 0.08, -5.19, 0.55, -4.70, 34.62, 38.95, 17.86,
88.03857254981995,1.01, 0.01, 0.07, -8.12, 7.20, 1.89, 34.85, 39.29, 16.53,
88.14769530296326,0.99, 0.02, 0.03, 0.00, -0.49, -1.34, 35.16, 39.17, 18.13,
88.25671291351318,0.98, 0.03, 0.03, 4.21, -0.24, -3.91, 34.85, 39.53, 17.04,
88.36687660217285,1.04, -0.03, 0.04, 12.21, -4.09, -5.13, 34.81, 39.20, 16.70,
88.47503995895386,0.98, -0.06, 0.02, 7.75, 0.31, 0.12, 34.48, 39.55, 19.30,
88.58524656295776,1.07, -0.06, 0.01, 0.61, -3.97, 4.58, 34.44, 39.53, 18.66,
88.69586992263794,0.95, 0.02, 0.06, 9.09, -7.08, 0.61, 35.16, 38.66, 18.26,
88.80449271202087,1.01, 0.03, 0.10, 22.52, -5.19, -1.46, 35.01, 38.53, 18.49,
88.91313624382019,1.00, -0.02, 0.12, 16.97, -6.10, 3.30, 35.02, 38.78, 18.93,
89.02241706848145,0.96, -0.05, 0.15, 10.80, -4.52, -1.95, 35.91, 38.87, 19.58,
89.1325330734253,1.01, 0.05, 0.10, -3.48, 1.34, -2.38, 35.17, 39.17, 19.56,
89.24202704429626,0.98, -0.00, 0.11, 5.07, -1.89, 2.14, 34.68, 38.43, 19.91,
89.35292887687683,0.99, -0.03, 0.13, 11.05, -3.42, 0.73, 35.17, 38.57, 20.69,
89.46207690238953,0.99, -0.11, 0.13, -4.58, -4.39, -4.15, 34.83, 38.62, 20.04,
89.57275247573853,0.97, -0.03, 0.12, -20.94, -1.65, 0.49, 34.70, 38.83, 20.63,
89.68293809890747,0.99, -0.01, 0.13, -17.33, -2.01, 5.74, 35.40, 38.90, 18.82,
89.79268479347229,0.99, 0.02, 0.13, -14.10, -1.46, 5.13, 34.97, 38.65, 17.46,
89.90163254737854,1.01, 0.02, 0.14, -13.31, 1.34, 5.49, 35.31, 37.44, 18.37,
90.01006698608398,0.97, 0.05, 0.14, -11.66, -1.40, 5.43, 35.55, 38.22, 16.75,
90.12008929252625,0.99, 0.05, 0.13, -3.91, 1.46, 3.17, 36.33, 37.32, 15.94,
90.2293438911438,1.00, 0.07, 0.13, -1.04, 1.16, -0.73, 35.79, 38.00, 17.42,
90.33946704864502,0.99, 0.05, 0.14, 2.08, 1.28, -1.77, 36.38, 36.96, 17.66,
90.44838833808899,1.00, 0.10, 0.11, -2.20, 10.01, -9.89, 35.53, 37.81, 17.16,
90.55754685401917,0.97, 0.01, 0.10, 11.54, 6.41, 0.43, 35.63, 38.65, 17.69,
90.6664035320282,1.00, -0.03, 0.10, 12.27, 0.98, -6.35, 35.53, 39.15, 18.33,
90.77591848373413,1.01, 0.06, 0.09, 4.58, -0.37, -6.41, 35.31, 39.40, 18.20,
90.88564586639404,0.98, -0.03, 0.09, 3.54, 0.49, -0.61, 35.33, 38.87, 19.41,
90.99446821212769,0.99, 0.00, 0.08, -3.30, -1.16, -0.12, 34.88, 38.66, 18.92,
91.10491871833801,1.00, 0.01, 0.08, -3.17, 0.61, 0.00, 35.57, 38.53, 18.48,
91.21315813064575,1.00, -0.01, 0.09, -3.23, -0.92, -1.71, 35.62, 38.79, 18.79,
91.32352781295776,1.00, 0.02, 0.09, -14.28, -2.75, -1.65, 34.88, 38.99, 18.71,
91.43348479270935,0.99, 0.02, 0.06, -13.12, 5.86, 0.61, 35.31, 38.94, 19.53,
91.54209542274475,1.01, 0.03, 0.04, -1.95, 0.12, -4.15, 35.21, 38.83, 18.54,
91.65280556678772,0.98, 0.03, 0.05, 9.95, 6.04, 2.75, 35.77, 38.79, 18.23,
91.7619149684906,1.00, -0.01, 0.07, 6.16, 2.50, 2.44, 35.47, 38.60, 18.99,
91.87058758735657,1.00, 0.00, 0.05, 1.65, 0.18, -2.69, 34.94, 38.29, 19.49,
91.97928810119629,1.00, 0.00, 0.05, -0.92, 1.95, -0.18, 34.72, 38.06, 19.41,
92.08992171287537,1.00, 0.01, 0.04, -2.62, 1.83, 0.18, 34.88, 38.20, 20.18,
92.19997048377991,1.00, 0.01, 0.04, -1.83, -0.43, -0.67, 34.84, 38.66, 19.71,
92.30903482437134,1.00, 0.01, 0.04, -0.92, 0.92, -0.24, 35.46, 38.55, 19.25,
92.4194598197937,1.00, 0.01, 0.04, -0.43, 0.24, -0.67, 35.47, 38.53, 19.75,
92.52908301353455,1.00, 0.01, 0.04, -1.04, 0.12, -0.92, 35.27, 38.56, 19.85,
92.63891768455505,1.00, 0.01, 0.04, -0.55, 0.31, -0.98, 35.55, 39.16, 19.89,
92.7474730014801,1.00, 0.01, 0.04, -0.18, -1.59, -1.04, 34.88, 39.07, 19.71,
92.8585901260376,1.00, 0.01, 0.04, -0.31, -0.67, -0.79, 34.91, 38.98, 19.95,
92.96922516822815,1.00, 0.01, 0.04, -0.43, -0.98, -0.67, 34.77, 39.00, 19.54,
93.08029961585999,1.00, 0.01, 0.04, -0.98, -0.37, -0.31, 34.91, 39.07, 19.34,
93.19054174423218,1.00, 0.00, 0.04, -0.67, -2.44, -0.18, 34.63, 38.81, 20.34,
93.29858469963074,1.00, 0.01, 0.04, -0.37, 0.67, -0.06, 35.58, 39.20, 19.13,
93.40958642959595,1.00, 0.01, 0.04, -0.06, 0.00, -0.79, 35.03, 39.18, 18.75,
93.5198667049408,1.00, 0.01, 0.03, -0.18, -4.46, -0.18, 35.06, 39.14, 19.34,
93.62991237640381,1.00, 0.01, 0.04, -1.16, -0.12, -0.67, 35.05, 38.81, 19.75,
93.74000096321106,1.00, 0.02, 0.03, -0.98, -2.01, -1.34, 35.16, 38.78, 19.53,
93.84993386268616,0.98, 0.01, 0.05, -0.31, -4.15, -0.98, 34.90, 38.87, 19.45,
93.96077060699463,1.00, 0.00, 0.07, 0.06, 7.87, 0.43, 34.81, 38.78, 19.51,
94.07031536102295,1.03, 0.01, -0.00, -0.67, -5.55, -1.71, 34.73, 38.81, 20.31,
94.18064951896667,0.96, 0.02, -0.03, 0.31, -6.96, -1.89, 34.40, 39.14, 19.31,
94.29062938690186,1.01, 0.00, 0.10, -1.83, 11.05, -1.04, 34.96, 39.48, 19.09,
94.39956068992615,1.02, 0.01, 0.05, -4.09, -5.92, 0.61, 34.62, 39.28, 19.78,
94.50930953025818,0.98, 0.01, 0.05, -5.55, -6.04, -0.49, 34.92, 39.36, 18.46,
94.61966705322266,0.99, 0.02, 0.08, -3.48, 4.70, -0.06, 34.35, 39.29, 18.52,
94.72904562950134,1.02, 0.03, 0.06, -0.12, -0.24, 0.49, 35.24, 39.15, 18.05,
94.83902168273926,0.98, 0.02, 0.04, 0.92, -2.75, -1.65, 35.12, 39.21, 17.94,
94.94842219352722,1.00, 0.01, 0.07, 0.61, 3.66, -0.61, 35.30, 38.88, 19.17,
95.05948543548584,1.01, 0.02, 0.06, -0.24, 1.65, -0.85, 35.02, 39.17, 17.91,
95.16979646682739,1.00, 0.01, 0.05, -0.55, 0.12, -1.89, 35.07, 39.21, 18.49,
95.27913045883179,1.01, 0.01, 0.04, -0.55, 0.92, -1.71, 35.46, 39.12, 18.52,
95.39049911499023,1.00, 0.02, 0.04, 0.06, 1.04, -0.67, 34.79, 39.33, 18.43,
95.49966096878052,1.00, 0.00, 0.04, 0.18, 0.79, -0.61, 35.00, 38.64, 20.41,
95.60845065116882,1.00, 0.01, 0.04, 0.00, -2.08, -1.16, 34.90, 39.06, 18.80,
95.71715950965881,1.00, 0.01, 0.05, -0.85, -1.65, -1.40, 34.45, 39.55, 17.96,
95.82847881317139,1.00, 0.01, 0.06, -1.46, 2.75, -1.77, 35.01, 39.73, 18.40,
95.93890905380249,1.00, 0.01, 0.04, -0.49, -1.77, -0.92, 34.69, 39.64, 18.93,
96.04746556282043,1.00, 0.01, 0.04, 1.77, -1.10, 0.43, 35.00, 39.43, 18.04,
96.15743827819824,1.00, 0.00, 0.06, 1.22, -0.61, -0.18, 34.92, 39.27, 19.19,
96.26774287223816,1.00, 0.01, 0.05, -1.53, -1.65, -0.18, 34.62, 39.64, 19.43,
96.37662148475647,1.00, 0.01, 0.05, -1.83, 0.67, -0.55, 34.59, 39.43, 18.71,
96.48622703552246,1.00, 0.01, 0.06, -0.24, -0.06, 0.49, 34.92, 39.28, 18.60,
96.59664869308472,1.00, 0.00, 0.05, 0.73, 1.46, -0.37, 35.68, 39.59, 19.43,
96.70615267753601,1.01, 0.01, 0.04, -0.18, 0.31, 0.37, 35.06, 38.62, 18.48,
96.8149402141571,1.00, 0.01, 0.04, -2.38, 0.61, -1.65, 35.52, 39.23, 19.86,
96.92496800422668,1.00, 0.02, 0.04, -0.61, -0.37, -0.37, 35.10, 39.25, 20.65,
97.0357620716095,1.00, 0.01, 0.04, 0.61, 0.00, -0.49, 34.31, 39.22, 19.75,
97.14398121833801,1.00, 0.02, 0.04, -0.73, 0.49, -0.43, 35.03, 38.67, 19.45,
97.2538812160492,1.00, 0.01, 0.04, -1.04, -0.18, -1.28, 34.29, 39.04, 18.75,
97.36312866210938,1.00, 0.01, 0.04, -0.55, -0.73, 0.18, 34.44, 38.99, 18.69,
97.47229051589966,1.00, 0.01, 0.03, -0.24, -0.24, -0.12, 34.74, 39.09, 19.02,
97.58091735839844,1.00, 0.01, 0.04, -0.61, -1.77, -0.31, 34.53, 39.39, 19.47,
97.69179248809814,1.00, 0.02, 0.04, -1.40, -3.23, -0.92, 34.70, 39.01, 19.29,
97.80108261108398,1.00, 0.02, 0.04, -1.28, -6.53, -1.89, 35.24, 39.27, 18.53,
97.91154265403748,0.99, -0.02, 0.09, -1.83, 16.05, 1.89, 34.85, 39.83, 19.49,
98.02176022529602,0.99, 0.02, 0.02, -0.98, -8.12, -1.16, 34.97, 39.64, 19.24,
98.13294982910156,0.99, 0.03, 0.01, 1.34, -0.24, -1.10, 34.91, 39.54, 19.19,
98.2428948879242,1.00, 0.01, 0.04, 0.18, -1.16, 3.17, 34.86, 39.29, 19.71,
98.35150980949402,1.00, 0.02, 0.06, -3.54, 7.32, 2.26, 34.70, 38.98, 19.65,
98.46077466011047,1.01, 0.01, 0.03, -1.89, -4.94, 0.49, 34.77, 38.93, 19.18,
98.56961035728455,1.00, 0.01, 0.03, -1.28, 0.00, 2.14, 34.99, 39.34, 18.97,
98.6804256439209,1.01, -0.00, 0.04, -3.11, -0.55, 6.47, 35.07, 39.16, 19.18,
98.79174613952637,1.00, 0.01, 0.04, -6.29, -0.12, 3.66, 35.30, 38.73, 19.82,
98.90063381195068,1.02, 0.02, 0.02, -4.03, 3.23, 6.16, 35.34, 37.61, 19.10,
99.01152491569519,0.99, 0.06, 0.02, -5.80, 5.31, 6.16, 34.99, 37.44, 19.49,
99.12283897399902,0.98, 0.13, -0.00, -1.28, 5.55, 3.78, 35.27, 36.90, 19.43,
99.23227834701538,1.05, 0.24, -0.06, 13.49, 7.14, 0.12, 35.51, 36.22, 21.37,
99.34114074707031,1.00, 0.11, -0.05, 13.55, -1.04, -7.51, 34.85, 35.61, 22.16,
99.45132160186768,1.01, 0.11, -0.04, 3.11, -3.85, -8.91, 35.08, 36.78, 21.90,
99.56142163276672,0.98, 0.12, 0.01, -0.24, -3.36, -7.75, 35.10, 37.34, 22.39,
99.67165231704712,0.97, 0.12, 0.03, -11.60, -3.05, -10.01, 35.11, 38.00, 21.45,
99.78341507911682,1.04, 0.05, 0.02, -4.52, -8.12, -9.22, 34.33, 39.58, 20.79,
99.89348578453064,1.00, -0.00, 0.03, -0.49, 2.93, -6.71, 34.57, 40.16, 19.12,
100.00357913970947,1.00, -0.03, 0.02, -20.94, -1.95, -10.93, 33.95, 40.58, 17.55,
100.11358428001404,0.96, -0.08, -0.03, -30.82, -4.15, -7.57, 34.02, 41.39, 16.93,
100.22332048416138,1.02, -0.18, -0.01, -14.47, -0.55, -16.66, 33.57, 41.78, 15.12,
100.33405113220215,1.00, -0.14, 0.02, 7.75, -8.00, -1.59, 32.96, 43.05, 14.22,
100.44469976425171,0.97, -0.14, 0.02, 26.12, 0.61, -8.79, 33.45, 43.73, 16.13,
100.55440378189087,0.93, -0.08, 0.03, 18.68, -3.05, -3.78, 33.00, 44.02, 17.44,
100.66417741775513,1.03, -0.16, 0.07, 13.73, 4.46, -2.26, 32.80, 43.71, 17.64,
100.77440690994263,0.98, -0.14, 0.03, -5.74, -2.08, 2.87, 32.75, 43.88, 17.54,
100.88671588897705,1.01, -0.10, 0.02, -13.92, -1.53, 7.57, 33.17, 43.76, 17.72,
100.9968855381012,1.00, -0.10, 0.03, -6.84, -4.58, -0.06, 33.46, 42.71, 15.99,
101.10612440109253,0.98, -0.09, 0.06, 8.30, -5.80, -6.16, 33.73, 43.53, 16.81,
101.2166519165039,1.01, -0.11, 0.09, 17.15, -1.95, -3.48, 33.64, 43.62, 15.69,
101.32747411727905,0.99, -0.12, 0.07, 4.88, 1.04, 2.20, 33.95, 43.75, 16.85,
101.43758988380432,1.01, -0.10, 0.04, -2.56, -2.08, 5.31, 33.85, 43.62, 18.23,
101.54706954956055,1.01, -0.06, 0.06, 3.72, 0.73, -4.33, 33.59, 43.08, 17.81,
101.65711307525635,1.01, -0.15, 0.04, 9.22, -2.99, -1.04, 34.11, 43.07, 17.19,
101.76716232299805,0.96, -0.12, 0.07, 8.18, -15.38, 16.78, 34.36, 42.66, 18.59,
101.87738132476807,1.20, 0.07, 0.11, 9.89, 4.46, -2.81, 34.50, 42.22, 17.38,
101.98856043815613,0.93, -0.08, 0.09, 1.34, 3.42, -1.65, 35.10, 41.32, 18.02,
102.09848189353943,0.99, -0.06, 0.10, 1.04, 3.11, 3.78, 35.25, 40.93, 17.46,
102.20821213722229,1.04, 0.05, 0.01, -2.38, 4.21, -4.76, 34.92, 40.88, 18.47,
102.31885409355164,0.97, -0.07, 0.06, 3.11, 0.61, 1.65, 35.22, 40.59, 18.37,
102.42878532409668,1.00, -0.05, 0.05, 0.18, 2.14, 1.83, 35.21, 40.38, 19.23,
102.53796887397766,1.00, -0.05, 0.05, 0.73, 1.28, 0.67, 35.31, 40.42, 18.48,
102.6487762928009,1.00, -0.04, 0.05, -0.55, 0.92, -1.59, 35.38, 40.49, 18.79,
102.75850224494934,1.01, -0.05, 0.05, -0.55, 1.34, -0.73, 35.50, 41.05, 19.10,
102.86815094947815,0.99, -0.03, 0.04, -0.06, 0.06, -2.01, 35.49, 40.72, 18.40,
102.97989535331726,1.00, -0.05, 0.04, 0.12, -0.49, -1.04, 35.14, 40.82, 18.95,
103.08951210975647,1.00, -0.06, 0.04, 1.40, -0.31, -1.10, 35.29, 40.44, 18.74,
103.19993877410889,1.00, -0.05, 0.03, -0.55, -0.43, -0.55, 35.36, 40.82, 18.75,
103.30939960479736,1.00, -0.05, 0.03, -1.89, -3.97, -0.06, 35.16, 41.16, 19.32,
103.41962003707886,1.00, -0.01, 0.07, -9.46, 10.25, -6.77, 35.11, 41.05, 18.70,
103.53032517433167,1.01, -0.03, 0.03, 12.21, -12.02, 2.01, 34.28, 41.35, 19.03,
103.64029383659363,1.00, -0.19, 0.03, -5.07, 0.67, -6.29, 34.56, 41.35, 18.81,
103.75079894065857,0.98, -0.05, 0.07, -4.94, -7.26, -3.36, 33.91, 42.22, 18.08,
103.85999393463135,1.03, -0.08, 0.09, -10.74, 2.20, 0.85, 34.08, 42.46, 18.16,
103.96900057792664,0.99, -0.05, 0.05, -0.67, 5.25, -0.61, 34.29, 42.33, 17.98,
104.07955646514893,0.99, -0.09, 0.04, 1.53, 3.91, -0.67, 34.12, 41.44, 18.57,
104.1892957687378,1.05, -0.09, -0.02, 9.58, -8.24, -0.43, 34.23, 42.20, 18.85,
104.29924702644348,1.04, -0.06, 0.08, -17.82, 9.70, -18.07, 34.36, 41.77, 19.01,
104.40909910202026,0.92, -0.17, 0.03, -9.64, -6.53, 12.21, 34.03, 42.07, 18.62,
104.51938962936401,1.00, -0.07, 0.08, -17.21, 0.61, -1.89, 34.64, 41.83, 17.66,
104.62841176986694,0.99, -0.04, 0.06, -6.47, 3.85, 3.42, 34.18, 42.02, 16.50,
104.73877882957458,1.03, -0.03, 0.05, 5.92, 0.18, 2.44, 34.35, 41.70, 16.99,
104.84694838523865,0.99, -0.07, 0.05, 9.70, 1.89, 2.14, 35.40, 41.35, 18.04,
104.95661306381226,0.98, -0.01, -0.01, 6.35, 2.26, -0.61, 35.30, 40.86, 19.04,
105.06624698638916,0.99, -0.11, 0.03, -8.24, -1.10, 3.72, 34.74, 40.81, 19.45,
105.17659735679626,1.05, -0.11, 0.03, -15.44, -1.28, 3.97, 35.49, 40.73, 18.14,
105.28738260269165,0.95, -0.05, 0.03, -18.01, -6.90, 13.00, 35.36, 39.78, 17.93,
105.3970115184784,1.00, -0.05, 0.06, -8.48, -6.29, 4.27, 35.38, 39.37, 16.91,
105.50737237930298,0.98, 0.02, 0.08, 0.73, -7.51, 7.32, 35.21, 38.92, 15.09,
105.61757612228394,1.04, 0.02, 0.09, 0.61, -2.50, 3.97, 35.39, 38.75, 15.53,
105.72740316390991,0.96, 0.08, 0.08, -0.61, -1.40, 11.17, 35.14, 38.20, 15.65,
105.83743715286255,1.01, 0.08, 0.14, -2.99, -3.23, 8.54, 35.21, 37.29, 15.47,
105.94742488861084,0.97, 0.12, 0.11, -10.19, -7.39, 5.92, 35.88, 36.89, 14.70,
106.0589509010315,0.98, 0.13, 0.11, -21.67, -3.72, -0.06, 35.58, 36.33, 14.86,
106.16905617713928,0.96, 0.20, 0.09, -13.31, 1.34, -1.28, 35.11, 36.34, 13.51,
106.27950668334961,0.98, 0.19, 0.08, 2.99, 5.62, 0.37, 34.81, 36.01, 13.65,
106.38835144042969,1.00, 0.16, 0.09, 11.90, 3.66, 1.46, 35.46, 36.27, 15.98,
106.49847602844238,0.98, 0.14, 0.09, 4.27, 3.05, 1.46, 35.46, 35.50, 15.78,
106.60692691802979,1.00, 0.16, 0.09, -4.39, -0.67, -0.55, 35.67, 35.72, 16.63,
106.71636915206909,1.00, 0.17, 0.09, -6.04, 0.24, -1.65, 35.89, 35.29, 16.41,
106.82681632041931,1.00, 0.18, 0.07, 6.53, 4.94, -2.44, 36.00, 35.41, 16.65,
106.9372456073761,0.99, 0.18, 0.06, 16.17, -2.01, 1.40, 35.55, 35.79, 16.53,
107.04658365249634,0.98, 0.13, 0.10, 10.44, -2.32, -0.37, 36.25, 35.52, 16.41,
107.15791749954224,0.96, 0.13, 0.10, -0.92, 1.28, -3.66, 36.49, 35.06, 17.70,
107.26699542999268,1.01, 0.10, 0.10, -5.43, 1.04, -5.92, 36.08, 35.56, 16.81,
107.37793684005737,0.97, 0.06, 0.07, -10.80, 0.06, -10.50, 36.16, 36.52, 16.05,
107.48779344558716,1.00, 0.08, 0.05, -15.69, -1.46, -13.12, 36.07, 36.66, 15.17,
107.59759521484375,0.98, 0.09, 0.06, -6.84, 3.78, -14.22, 35.06, 38.64, 15.28,
107.7078709602356,0.97, -0.01, 0.05, 3.36, 0.98, -7.26, 34.70, 39.23, 15.09,
107.81837773323059,1.12, -0.08, 0.08, 2.26, -0.85, -5.31, 34.90, 39.87, 14.69,
107.92841100692749,0.90, -0.06, 0.07, -6.29, -3.72, -0.55, 35.56, 39.93, 15.19,
108.03829288482666,1.09, -0.08, 0.09, 2.75, -2.81, -4.94, 35.02, 40.01, 14.71,
108.14884114265442,0.91, -0.06, 0.03, -10.68, 4.39, 0.55, 34.52, 39.77, 14.01,
108.25825309753418,1.06, -0.02, 0.04, 0.18, -3.11, 7.45, 35.14, 40.26, 13.01,
108.36813807487488,0.95, -0.10, 0.05, 6.90, -1.16, 1.89, 35.46, 39.87, 13.56,
108.47864127159119,1.09, -0.01, 0.12, 8.73, -7.75, 3.60, 34.88, 39.62, 13.92,
108.58885550498962,0.91, 0.03, 0.09, 10.99, -2.93, 11.23, 34.46, 38.57, 14.93,
108.69768786430359,1.02, 0.03, 0.10, 12.57, -0.92, 10.44, 35.12, 38.32, 15.60,
108.8059754371643,0.97, 0.09, 0.11, 13.24, -1.77, 9.28, 35.18, 36.39, 17.76,
108.91606092453003,0.99, 0.10, 0.12, 6.84, 6.47, 12.08, 35.28, 35.39, 17.38,
109.02530169487,0.98, 0.16, 0.10, 6.16, 10.86, 9.46, 35.83, 34.77, 18.03,
109.13672924041748,1.02, 0.28, 0.06, 14.65, 2.62, 4.76, 36.72, 34.57, 17.87,
109.24622344970703,0.95, 0.20, 0.08, 15.56, -2.93, -2.32, 36.57, 33.94, 20.46,
109.35574436187744,0.96, 0.22, 0.09, -0.73, 6.23, -7.57, 36.35, 34.18, 19.93,
109.46614074707031,0.98, 0.12, 0.10, 1.95, -4.03, -8.91, 36.00, 34.69, 20.30,
109.57606101036072,1.02, 0.12, 0.11, 5.62, 7.02, -9.58, 35.83, 35.68, 20.36,
109.68665480613708,0.95, 0.05, 0.05, 7.69, -1.95, -12.88, 35.05, 36.00, 20.80,
109.7966947555542,0.99, 0.04, 0.09, -1.34, -2.56, -11.29, 35.60, 36.77, 20.24,
109.90629124641418,1.01, 0.00, 0.09, 0.85, 1.40, -6.77, 34.79, 38.13, 20.15,
110.01605296134949,0.98, -0.01, 0.06, 4.94, 2.75, -4.70, 34.69, 38.61, 20.23,
110.12631487846375,0.95, -0.06, 0.01, -1.40, 4.03, -2.93, 34.94, 38.49, 21.14,
110.23650097846985,1.10, -0.03, 0.08, -6.90, 2.56, -10.56, 34.31, 39.33, 21.04,
110.34569954872131,0.91, -0.08, 0.04, 7.69, 1.22, -9.58, 33.95, 40.50, 20.87,
110.45509624481201,1.08, -0.14, 0.09, 9.64, -10.56, 1.10, 34.27, 40.95, 21.87,
110.56576824188232,0.90, -0.10, 0.03, -22.95, -1.59, 0.67, 34.00, 40.01, 20.48,
110.67448663711548,1.11, -0.07, 0.02, -28.56, 1.28, 1.53, 34.30, 40.55, 19.21,
110.78380584716797,1.01, 0.01, 0.05, 2.32, -1.59, 3.48, 33.85, 40.23, 18.69,
110.89424991607666,1.01, -0.08, 0.08, 16.54, -12.08, 14.40, 34.73, 38.99, 18.76,
111.00424146652222,0.95, -0.03, 0.09, -0.67, -6.65, 5.80, 35.53, 38.24, 19.57,
111.11496877670288,1.01, 0.07, 0.15, -12.76, 1.71, -1.53, 35.49, 38.88, 18.58,
111.22547435760498,0.97, 0.10, 0.07, 11.47, 6.96, 14.28, 35.18, 37.65, 19.26,
111.33513641357422,1.00, 0.06, 0.11, 30.03, 6.47, 7.26, 36.02, 36.58, 19.69,
111.44489121437073,0.96, 0.10, 0.09, 32.41, 5.98, 10.44, 35.55, 35.88, 21.25,
111.55562400817871,0.97, 0.12, 0.06, 31.68, 8.48, 11.17, 36.56, 34.52, 24.01,
111.66546487808228,1.13, 0.08, 0.08, 8.06, 8.42, -1.10, 36.17, 32.85, 26.50,
111.77565026283264,0.93, 0.15, 0.05, 0.12, -12.33, -9.34, 36.45, 33.53, 25.23,
111.88540601730347,1.09, 0.14, 0.10, 4.76, 7.39, -3.97, 36.54, 33.40, 26.28,
111.99524211883545,0.90, 0.06, 0.07, 13.98, -5.55, -5.13, 36.74, 33.86, 25.52,
112.10530042648315,1.05, 0.04, 0.11, 9.95, -3.48, -5.13, 36.39, 33.37, 25.51,
112.2159595489502,0.95, 0.02, 0.08, 21.42, 4.33, 3.42, 36.80, 34.13, 25.82,
112.32573008537292,0.92, -0.01, 0.02, 17.33, 7.87, 5.98, 37.49, 32.23, 28.41,
112.43549275398254,1.19, -0.02, -0.02, 12.63, 7.26, -8.79, 37.32, 32.60, 27.82,
112.54582047462463,0.94, -0.00, 0.00, -0.85, 0.55, -3.17, 37.13, 32.70, 28.42,
112.65520715713501,0.96, -0.01, 0.03, 9.58, -0.85, -10.44, 37.37, 33.36, 28.66,
112.76519560813904,1.07, 0.03, 0.05, 8.61, -12.39, 0.92, 37.16, 33.42, 28.75,
112.87556052207947,0.93, -0.07, 0.06, -10.99, -2.99, 3.72, 38.20, 33.02, 29.20,
112.98560380935669,1.04, -0.02, 0.06, -15.75, 0.55, -5.19, 37.54, 33.52, 28.09,
113.09482669830322,0.99, 0.02, 0.05, -5.37, -2.81, 2.62, 37.04, 33.98, 28.17,
113.20561838150024,1.00, 0.01, 0.07, 4.46, -0.79, 0.12, 37.30, 33.69, 27.17,
113.31465411186218,1.00, -0.00, 0.07, 7.45, -0.61, -3.42, 36.91, 33.53, 27.99,
113.42538356781006,1.00, -0.03, 0.09, 2.56, 0.37, 1.04, 37.28, 33.40, 26.95,
113.5353696346283,0.99, 0.01, 0.05, -7.93, 0.67, 1.34, 37.48, 33.51, 27.73,
113.64575695991516,1.01, 0.02, 0.07, -4.94, 0.98, 0.61, 37.66, 33.96, 27.92,
113.75485014915466,1.00, 0.02, 0.07, -2.01, -0.18, -0.49, 36.94, 33.39, 26.93,
113.86524629592896,1.01, 0.01, 0.07, 1.95, -0.31, -1.83, 37.33, 33.84, 28.70,
113.97534966468811,1.00, -0.01, 0.07, 7.81, -1.04, -2.14, 37.87, 33.58, 28.03,
114.0847864151001,1.01, -0.03, 0.06, -2.08, -0.79, -2.93, 37.29, 33.52, 27.61,
114.19564032554626,1.00, -0.00, 0.06, -8.00, -0.37, -0.18, 37.34, 33.94, 27.27,
114.30669522285461,1.01, -0.07, 0.03, -2.20, 0.06, -2.93, 36.99, 34.28, 27.97,
114.41643524169922,1.03, -0.03, 0.03, 6.10, -3.54, -1.65, 36.79, 34.89, 26.99,
114.52564692497253,0.97, -0.04, 0.04, 23.38, -4.46, 4.88, 37.05, 33.90, 27.72,
114.63589334487915,1.00, -0.05, 0.07, 18.92, -0.37, 2.26, 36.62, 33.44, 28.65,
114.7465615272522,0.78, 0.03, 0.11, 7.63, -2.38, 14.47, 36.27, 31.74, 29.00,
114.856210231781,1.43, 0.01, 0.28, -11.84, 2.26, 1.34, 36.71, 30.94, 30.09,
114.96571946144104,0.70, 0.10, 0.08, -26.92, -11.17, 6.41, 36.41, 31.10, 28.23,
115.0756618976593,1.23, 0.18, 0.14, -17.33, 4.94, 14.95, 36.65, 31.01, 28.45,
115.18561172485352,0.93, 0.06, 0.17, 7.45, -17.70, -5.00, 38.33, 29.81, 27.31,
115.29637575149536,0.95, 0.01, 0.19, -0.98, -2.08, -3.72, 38.33, 30.18, 26.78,
115.4064781665802,1.00, 0.09, 0.20, -12.76, -6.84, -3.54, 37.77, 30.63, 25.89,
115.51676845550537,0.97, 0.09, 0.19, 4.88, -1.34, -0.37, 37.87, 31.29, 25.31,
115.62730169296265,0.97, 0.06, 0.17, 9.52, 0.49, -2.14, 37.78, 31.32, 24.50,
115.73780155181885,0.99, 0.04, 0.17, 3.91, 3.54, -1.16, 37.60, 30.35, 26.03,
115.8481674194336,0.98, 0.04, 0.16, 4.27, 2.20, -3.11, 37.52, 30.91, 26.31,
115.95729613304138,0.98, 0.04, 0.15, 5.07, 2.50, -2.50, 37.76, 30.55, 27.60,
116.06694746017456,0.99, 0.03, 0.16, 2.38, 0.55, -1.22, 37.78, 30.65, 27.28,
116.17653441429138,0.99, 0.03, 0.15, 0.18, 0.98, -1.16, 37.52, 30.82, 26.78,
116.28644824028015,0.99, 0.04, 0.15, 0.00, 0.00, -1.16, 37.55, 30.58, 28.72,
116.39627814292908,0.98, 0.03, 0.16, 3.91, -0.85, -1.53, 37.99, 30.99, 28.02,
116.50659584999084,1.00, 0.02, 0.16, 2.26, 0.00, -1.40, 37.93, 30.82, 27.21,
116.61544442176819,0.99, 0.02, 0.16, 0.37, -0.79, -1.10, 37.38, 31.31, 27.15,
116.72555708885193,0.99, 0.02, 0.16, 0.61, 0.24, -1.16, 37.60, 30.48, 27.66,
116.8337230682373,0.99, 0.02, 0.15, 0.18, 0.43, -0.49, 37.38, 31.18, 27.55,
116.94441866874695,0.99, 0.01, 0.15, -0.31, 0.79, -0.43, 37.73, 30.94, 26.21,
117.05339288711548,0.96, 0.03, 0.12, 1.16, 4.15, 0.43, 37.07, 30.73, 28.02,
117.16180467605591,1.03, 0.02, 0.15, -2.08, 1.34, -1.71, 37.17, 30.75, 28.97,
117.2719042301178,0.98, 0.02, 0.16, -5.62, -6.71, -0.61, 37.34, 30.48, 28.45,
117.38355565071106,0.99, 0.05, 0.15, -2.50, 3.60, 3.48, 37.02, 30.60, 27.51,
117.49205660820007,0.98, 0.03, 0.13, 3.78, -0.49, 1.10, 37.46, 30.44, 27.10,
117.60344743728638,1.01, 0.02, 0.13, 0.00, 4.70, -1.83, 37.41, 30.87, 27.48,
117.7135124206543,0.99, 0.04, 0.14, 1.04, -3.17, -1.95, 37.11, 30.63, 27.76,
117.82337069511414,0.99, 0.03, 0.14, 3.85, 1.10, -2.08, 37.48, 30.48, 27.37,
117.93363118171692,1.00, 0.01, 0.13, -2.01, -1.10, -1.65, 36.84, 30.62, 27.10,
118.0434262752533,0.99, 0.03, 0.14, -3.85, -4.09, -0.12, 37.41, 31.26, 27.47,
118.15361499786377,0.99, 0.03, 0.15, -0.06, -2.99, -1.46, 37.57, 30.90, 27.38,
118.26373171806335,1.00, 0.02, 0.16, 1.28, -0.92, -1.71, 37.45, 31.73, 27.91,
118.37315058708191,0.98, 0.02, 0.14, -0.37, 1.83, 0.31, 37.34, 31.15, 27.53,
118.48373794555664,1.00, 0.01, 0.14, -0.73, 1.22, -0.55, 37.19, 30.25, 27.81,
118.59347033500671,1.00, 0.01, 0.14, -2.81, -5.86, -1.65, 37.07, 30.25, 26.99,
118.70448780059814,0.96, 0.04, 0.16, -0.73, 0.18, -0.18, 37.12, 31.05, 27.83,
118.81442594528198,1.07, -0.04, 0.17, 4.15, 11.54, 0.24, 36.76, 30.76, 27.53,
118.92419838905334,0.96, 0.01, 0.08, 0.92, -1.22, -0.67, 36.93, 30.60, 27.32,
119.03327345848083,1.01, 0.07, 0.12, 1.89, -18.68, -7.75, 36.94, 30.69, 28.85,
119.14233994483948,0.96, -0.04, 0.19, 6.41, -26.18, -5.49, 37.00, 31.08, 27.67,
119.25090503692627,0.99, -0.06, 0.31, -2.75, 13.49, 3.97, 36.73, 31.84, 27.67,
119.3616292476654,0.98, 0.00, 0.18, 1.71, -0.49, 1.10, 36.82, 31.01, 27.53,
119.47142672538757,0.99, 0.03, 0.16, 1.71, -5.19, -0.92, 37.00, 31.07, 26.22,
119.58105325698853,0.98, -0.02, 0.21, 2.50, -12.94, 1.95, 36.79, 30.97, 26.18,
119.6909294128418,1.00, 0.01, 0.24, -7.32, 0.67, 3.66, 37.35, 30.15, 26.18,
119.8017430305481,0.94, 0.02, 0.26, -8.48, -5.37, 3.05, 37.40, 30.66, 24.35,
119.9125747680664,0.98, 0.07, 0.25, -1.53, -6.59, 0.61, 37.72, 30.27, 23.57,
120.02272772789001,0.98, 0.07, 0.25, 0.92, 5.37, -2.62, 37.92, 30.42, 24.33,
120.13252973556519,0.95, 0.00, 0.28, 0.67, -5.43, 1.22, 38.33, 29.71, 23.85,
120.24231505393982,1.00, 0.02, 0.28, -9.16, 5.92, 6.47, 38.22, 29.81, 24.39,
120.35221290588379,0.94, 0.09, 0.24, -5.68, 1.77, -0.12, 38.31, 29.58, 23.60,
120.46267795562744,0.98, 0.09, 0.23, 3.66, 7.45, -3.48, 38.11, 29.26, 24.69,
120.57177567481995,0.99, 0.03, 0.22, 12.82, -1.10, -3.17, 38.05, 29.58, 25.11,
120.68274569511414,0.96, -0.00, 0.23, 4.21, -0.55, -3.78, 37.85, 29.20, 25.39,
120.79177856445312,0.97, 0.02, 0.24, -8.24, 6.29, -4.03, 37.89, 29.38, 26.21,
120.9025011062622,0.97, 0.05, 0.32, -2.75, 2.44, -4.21, 37.74, 30.40, 26.84,
121.0121202468872,0.97, 0.08, 0.17, 8.30, 9.16, -1.89, 37.81, 30.59, 25.23,
121.12109375,0.98, -0.03, 0.18, 12.63, 13.79, -5.13, 36.57, 30.21, 26.35,
121.23259115219116,1.01, -0.02, 0.10, -0.85, 6.47, -5.00, 36.80, 30.22, 28.87,
121.34188961982727,0.99, -0.02, 0.12, -0.73, 0.37, 3.11, 36.54, 31.05, 28.69,
121.4525511264801,1.01, 0.02, 0.14, -7.93, -2.62, -0.55, 36.58, 30.21, 27.95,
121.56208229064941,0.99, 0.01, 0.15, -4.21, -5.07, -0.92, 36.44, 30.58, 28.38,
121.67196822166443,1.00, 0.00, 0.16, 0.79, -4.70, -3.17, 36.65, 30.97, 27.50,
121.78186106681824,0.98, 0.00, 0.16, -1.16, -1.28, -3.72, 36.68, 31.13, 28.02,
121.89260077476501,0.98, -0.02, 0.16, 0.37, 1.59, -4.82, 36.12, 30.69, 27.66,
122.00284123420715,0.95, -0.02, 0.14, -9.77, 16.54, -4.46, 36.27, 31.99, 27.36,
122.11360239982605,1.07, 0.01, 0.17, -25.88, -7.87, 2.08, 35.27, 31.84, 29.46,
122.2231969833374,1.00, 0.01, 0.12, -47.42, 4.33, 1.89, 35.58, 33.34, 27.04,
122.33356475830078,1.05, 0.09, 0.10, -74.46, -1.65, 0.43, 36.08, 34.59, 25.52,
122.44292569160461,0.95, 0.09, 0.07, -60.49, -8.12, -0.49, 35.84, 35.50, 22.45,
122.55324268341064,0.98, 0.08, 0.04, -48.22, -0.98, -5.68, 35.90, 36.72, 18.55,
122.6627151966095,1.00, 0.02, 0.11, -37.23, -4.39, -9.58, 35.42, 37.55, 16.39,
122.77297234535217,0.93, -0.09, 0.11, -35.95, -2.87, -15.93, 35.64, 38.75, 14.90,
122.88337731361389,1.04, -0.08, 0.13, -39.12, 3.48, -25.76, 34.28, 39.87, 13.95,
122.99318242073059,1.05, -0.21, 0.11, -22.28, -7.32, -4.03, 33.41, 40.61, 10.79,
123.10353875160217,0.91, -0.17, 0.05, -30.33, -7.87, -7.45, 33.74, 40.30, 9.09,
123.21277737617493,1.14, -0.02, 0.19, -34.79, -16.24, -4.70, 33.17, 40.67, 8.44,
123.32356071472168,0.96, 0.06, 0.19, -20.51, 9.83, 9.09, 32.35, 40.26, 4.91,
123.43215370178223,0.92, 0.04, 0.10, 2.08, -6.96, 11.05, 33.11, 39.03, 5.31,
123.54221868515015,1.02, 0.01, 0.16, 10.01, -0.92, 1.22, 33.31, 38.50, 5.64,
123.65079951286316,0.96, 0.01, 0.15, 2.69, -2.87, 0.31, 34.00, 38.57, 4.48,
123.75999903678894,1.01, 0.01, 0.19, 2.38, -4.76, -0.24, 33.03, 38.26, 4.57,
123.87026238441467,0.97, -0.01, 0.19, 8.18, -3.72, -4.15, 33.33, 38.70, 4.55,
123.97971844673157,0.98, -0.03, 0.19, 9.22, -1.10, -4.82, 33.70, 39.06, 5.20,
124.09148120880127,0.98, -0.04, 0.18, 5.68, 1.16, -5.00, 33.07, 40.34, 6.29,
124.20123600959778,0.99, -0.05, 0.18, 1.46, -1.89, -3.85, 33.04, 40.22, 5.71,
124.31137418746948,0.97, -0.06, 0.18, 1.46, -0.43, -4.58, 33.26, 40.17, 5.62,
124.42167830467224,0.98, -0.06, 0.18, 1.77, 0.61, -3.11, 32.73, 40.20, 5.85,
124.53140091896057,0.99, -0.09, 0.20, 0.61, -5.00, 1.77, 32.90, 40.78, 5.10,
124.64016509056091,0.97, -0.05, 0.19, -3.05, -1.71, -1.34, 32.47, 41.03, 5.59,
124.75005292892456,0.99, -0.06, 0.20, -1.40, -3.78, -0.49, 32.25, 40.55, 5.51,
124.86150002479553,0.97, -0.06, 0.20, -0.49, 1.28, 0.24, 33.13, 40.55, 5.87,
124.97126698493958,0.98, -0.06, 0.20, -0.55, 0.73, -0.43, 32.84, 40.70, 4.87,
125.08116579055786,0.98, -0.09, 0.20, -0.61, -0.49, -0.79, 32.89, 40.09, 5.51,
125.19083642959595,0.97, -0.06, 0.18, -0.12, -0.55, -0.61, 33.19, 40.36, 5.44,
125.30104541778564,0.99, -0.06, 0.19, -0.79, -1.16, 0.18, 32.60, 40.54, 6.49,
125.41071200370789,0.98, -0.06, 0.20, 0.06, -2.44, 0.37, 33.17, 40.53, 5.37,
125.52154445648193,0.98, -0.05, 0.21, 1.04, -2.87, 0.49, 32.40, 40.11, 5.42,
125.6307303905487,0.97, -0.06, 0.21, 0.00, 0.98, 0.12, 32.78, 40.33, 5.38,
125.74094724655151,0.99, -0.05, 0.21, -1.34, 2.50, -1.53, 32.85, 40.56, 5.20,
125.8513731956482,0.98, -0.05, 0.19, -1.46, 3.23, -1.16, 33.04, 40.00, 6.65,
125.96092796325684,1.01, -0.05, 0.25, 0.18, -7.81, 2.01, 33.07, 40.21, 5.33,
126.07117176055908,0.98, -0.05, 0.19, -0.61, 1.83, -1.16, 33.26, 40.19, 4.66,
126.18043851852417,0.97, -0.05, 0.21, 0.55, 2.87, 0.00, 33.33, 39.86, 5.31,
126.28890657424927,0.97, -0.07, 0.20, 1.77, 3.66, 1.46, 32.87, 40.15, 5.58,
126.39854860305786,0.95, -0.07, 0.18, 1.10, 11.60, -5.55, 33.29, 39.97, 6.92,
126.50812268257141,1.05, -0.04, 0.17, 8.06, 10.19, 5.55, 33.17, 40.65, 7.35,
126.61773204803467,0.98, -0.11, 0.13, 9.70, 3.30, 12.63, 33.40, 39.27, 7.03,
126.72838521003723,0.98, -0.10, 0.15, -6.10, 6.29, 10.80, 33.81, 38.61, 8.73,
126.8374137878418,1.04, -0.01, 0.12, -8.97, 5.92, 7.08, 34.24, 38.10, 8.00,
126.94672966003418,0.96, -0.04, 0.10, -15.44, 0.12, 17.33, 34.85, 36.04, 8.91,
127.0586633682251,0.98, 0.10, 0.04, -23.80, 5.62, -0.24, 34.55, 36.43, 9.08,
127.16799831390381,1.00, 0.28, -0.04, -14.16, 1.04, 1.22, 34.19, 35.80, 9.07,
127.2780327796936,1.03, 0.15, 0.01, -9.70, 1.71, -0.43, 34.45, 35.40, 9.99,
127.38841247558594,1.00, 0.14, 0.01, -28.20, 1.40, 8.42, 34.61, 34.97, 10.06,
127.49705362319946,1.00, 0.13, -0.03, -46.08, -11.17, -12.63, 34.47, 34.17, 7.95,
127.60710906982422,0.96, 0.18, 0.01, -28.32, -1.65, -9.83, 33.18, 33.83, 6.91,
127.71702885627747,0.99, 0.04, 0.04, -17.94, -5.86, -9.34, 33.67, 33.35, 3.82,
127.82721972465515,0.98, -0.01, 0.05, -36.80, 5.92, -13.92, 33.96, 34.12, 3.63,
127.93836998939514,0.99, -0.07, 0.05, -58.41, 0.43, -9.64, 33.67, 32.89, 1.90,
128.04783844947815,1.04, -0.04, 0.03, -61.28, -1.53, -5.43, 33.44, 31.64, 0.96,
128.15929746627808,1.05, -0.04, 0.04, -55.05, -3.60, -4.09, 33.12, 29.26, -2.29,
128.2703959941864,0.96, -0.05, 0.04, -32.59, -6.23, -9.40, 32.85, 27.32, -4.10,
128.3824484348297,0.98, -0.04, 0.04, -31.62, -8.30, -5.00, 32.39, 26.10, -4.99,
128.49461317062378,1.03, -0.04, 0.07, -41.81, -5.68, -6.16, 31.74, 24.50, -5.92,
128.60465478897095,0.94, -0.02, 0.12, -28.75, -9.89, -6.90, 31.99, 23.74, -8.75,
128.71453309059143,0.99, -0.00, 0.10, 22.40, -8.61, 0.61, 31.23, 23.74, -7.74,
128.82391834259033,1.04, -0.09, 0.13, 2.87, -7.26, 11.29, 30.92, 24.98, -9.24,
128.93552684783936,0.99, -0.04, 0.15, -5.37, -12.63, 10.62, 30.02, 23.90, -9.02,
129.04581570625305,0.94, 0.05, 0.20, -7.69, -4.03, 4.64, 29.55, 23.28, -11.49,
129.154967546463,0.98, 0.02, 0.21, 3.60, -4.88, -0.24, 29.52, 22.53, -11.55,
129.26515531539917,0.95, 0.03, 0.20, 9.70, 0.00, -3.78, 29.04, 23.08, -12.79,
129.37512302398682,0.98, -0.02, 0.19, 10.01, 2.26, -5.98, 29.31, 24.06, -12.05,
129.48468327522278,0.98, -0.03, 0.18, 6.10, -1.04, -5.37, 29.17, 25.13, -11.57,
129.59551811218262,0.98, -0.04, 0.19, 5.55, -2.08, -5.07, 29.69, 26.10, -10.64,
129.70504903793335,0.99, -0.06, 0.19, 3.60, -2.20, -1.89, 29.24, 26.66, -12.68,
129.81498742103577,0.99, -0.06, 0.20, 0.98, -0.61, -3.42, 29.11, 26.59, -11.67,
129.92564797401428,0.96, -0.06, 0.19, 1.28, 0.18, -4.33, 29.24, 27.00, -11.51,
130.03493523597717,0.99, -0.07, 0.20, 6.10, 6.23, -3.60, 29.43, 27.16, -11.68,
130.14498686790466,0.98, -0.07, 0.18, 4.70, 4.64, -5.86, 29.69, 28.49, -9.74,
130.25549840927124,1.00, -0.10, 0.16, 2.32, 7.39, -4.64, 29.72, 28.86, -9.95,
130.36442518234253,0.98, -0.11, 0.13, -3.60, 7.57, -1.34, 30.26, 28.50, -10.42,
130.4743950366974,1.02, -0.10, 0.10, -5.25, 7.20, 2.69, 31.03, 27.92, -9.79,
130.58408856391907,0.99, -0.09, 0.10, -7.02, 2.26, 0.12, 30.27, 27.84, -8.64,
130.69440603256226,1.00, -0.11, 0.10, -5.43, 1.77, -2.26, 30.52, 27.62, -10.18,
130.8040313720703,0.97, -0.08, 0.10, -5.43, -0.85, -4.82, 30.85, 27.82, -10.02,
130.91492795944214,1.00, -0.10, 0.10, -3.54, 1.16, -4.03, 31.05, 27.39, -9.35,
131.02498769760132,1.00, -0.11, 0.11, 1.59, 0.18, -3.42, 30.85, 27.73, -9.01,
131.13376784324646,0.98, -0.11, 0.11, 2.81, 1.77, -2.26, 30.91, 27.59, -9.41,
131.2448377609253,1.00, -0.11, 0.09, 3.11, 0.43, 0.00, 30.98, 27.86, -9.79,
131.3546392917633,0.99, -0.11, 0.09, 5.92, 1.53, 0.43, 30.49, 28.05, -7.68,
131.4655032157898,1.00, -0.12, 0.10, 3.05, 1.04, 0.43, 30.55, 28.22, -8.74,
131.57498168945312,0.98, -0.13, 0.08, -1.10, 0.43, -1.59, 31.48, 28.36, -8.50,
131.68472933769226,0.98, -0.14, 0.10, 2.44, 0.55, -2.75, 30.62, 28.74, -7.74,
131.79664778709412,1.01, -0.11, 0.08, 17.09, 1.89, 0.12, 30.93, 29.76, -8.20,
131.90600299835205,0.96, -0.09, 0.07, 33.33, 4.21, 5.25, 31.19, 30.36, -6.34,
132.01664090156555,1.02, -0.10, 0.06, 44.19, 9.89, 11.84, 31.37, 31.40, -4.59,
132.12625813484192,1.00, -0.11, 0.04, 52.80, 3.42, 9.52, 32.41, 32.91, -3.54,
132.23631501197815,1.01, -0.12, 0.02, 52.31, 0.79, 9.40, 32.89, 34.44, -1.17,
132.3460235595703,1.02, -0.12, -0.03, 49.68, 1.04, 6.90, 33.30, 36.21, 2.08,
132.45565938949585,1.00, -0.07, -0.04, 36.93, 1.53, 16.24, 33.91, 37.28, 4.49,
132.56581807136536,1.01, 0.05, 0.02, 57.50, -7.93, 24.66, 33.81, 37.02, 6.40,
132.67565369606018,0.93, 0.22, -0.05, 62.81, -0.12, 26.92, 34.84, 36.16, 8.25,
132.7861316204071,1.01, 0.15, 0.06, 49.87, -9.70, 23.25, 35.79, 35.01, 9.68,
132.89615178108215,0.99, 0.28, 0.08, 41.81, -11.11, -1.95, 36.69, 34.12, 11.91,
133.00611090660095,0.90, 0.16, 0.09, 29.11, -0.24, -2.14, 37.17, 34.90, 13.07,
133.11593651771545,1.00, 0.34, 0.10, 28.26, -4.88, 3.30, 36.61, 35.02, 13.54,
133.22698950767517,1.04, 0.13, 0.16, 24.60, 8.18, 7.63, 38.17, 34.25, 14.73,
133.3357434272766,0.93, -0.02, 0.08, 2.99, 7.69, -16.54, 38.34, 34.34, 15.76,
133.44683074951172,1.00, 0.11, 0.05, -7.08, 12.57, -11.47, 37.52, 35.72, 17.03,
133.55717754364014,0.97, 0.07, 0.01, 9.77, 10.99, -5.19, 37.27, 35.79, 16.48,
133.66740655899048,0.99, 0.07, 0.01, 17.58, 7.63, -4.76, 36.88, 36.41, 17.86,
133.7765417098999,1.04, 0.00, -0.01, 13.73, 4.09, 1.59, 38.12, 36.51, 19.65,
133.88585114479065,1.02, -0.07, -0.02, 2.50, -4.09, -22.89, 37.45, 37.21, 19.15,
133.99702072143555,1.00, -0.01, 0.00, 6.10, 0.06, -14.65, 35.97, 38.82, 18.48,
134.1059250831604,1.01, -0.01, 0.03, 23.25, -2.62, -1.28, 35.17, 39.33, 20.24,
134.21586275100708,1.00, -0.05, 0.04, 11.47, -0.43, 6.23, 36.46, 39.26, 20.89,
134.32573318481445,1.00, -0.05, 0.01, -4.70, 0.31, -1.89, 36.11, 38.40, 21.58,
134.43607139587402,0.99, -0.00, 0.02, -3.30, 5.98, -5.19, 35.71, 39.73, 20.87,
134.5457043647766,1.01, 0.00, 0.02, 6.71, -3.11, 0.67, 35.86, 39.25, 21.97,
134.65470933914185,1.00, -0.01, 0.01, 7.63, 0.49, -1.83, 35.71, 39.60, 22.20,
134.76382541656494,1.01, -0.02, 0.03, 3.97, -2.69, -0.49, 35.66, 39.10, 22.67,
134.87412071228027,1.00, -0.03, 0.02, -1.89, -0.61, -1.46, 35.94, 38.71, 22.67,
134.9828281402588,1.00, -0.03, 0.02, -4.33, -1.04, 0.37, 35.34, 38.83, 21.68,
135.09270310401917,1.00, -0.03, 0.01, -3.17, -1.10, -0.24, 35.39, 39.04, 20.20,
135.20307540893555,1.00, -0.03, 0.02, -1.83, -0.24, 0.00, 36.15, 39.38, 21.70,
135.3128218650818,1.00, -0.02, 0.01, -0.06, -0.18, 0.06, 35.67, 39.17, 21.75,
135.42292094230652,1.00, -0.02, 0.02, -1.53, -0.12, 0.31, 36.05, 39.40, 21.18,
135.53323078155518,1.00, -0.02, 0.02, -1.77, -0.79, 0.67, 35.89, 39.58, 21.03,
135.64297127723694,1.00, -0.01, 0.02, -2.08, -0.73, -0.31, 35.79, 39.54, 21.17,
135.7539041042328,1.00, -0.02, 0.02, -0.98, -1.28, -0.49, 35.78, 39.32, 21.45,
135.86352109909058,1.00, -0.02, 0.02, -0.37, -0.73, -0.79, 35.62, 38.85, 21.31,
135.97452211380005,1.01, -0.01, 0.03, 0.12, 0.92, -1.46, 35.75, 38.96, 20.90,
136.08344531059265,1.00, -0.02, 0.02, 1.22, -0.18, -2.01, 35.30, 39.34, 21.02,
136.19307351112366,1.01, -0.03, 0.02, -0.31, 0.12, -0.92, 35.67, 39.71, 22.22,
136.3028745651245,1.00, -0.03, 0.02, -0.98, 0.31, -1.28, 35.62, 40.11, 21.37,
136.41285061836243,1.00, -0.02, 0.01, -0.24, 0.06, -0.67, 35.75, 39.37, 21.48,
136.52359461784363,1.00, -0.03, 0.01, -0.12, -0.18, -0.49, 35.73, 39.38, 22.13,
136.6331946849823,1.00, -0.03, 0.02, 0.61, 0.18, -1.10, 35.56, 39.58, 21.37,
136.74212551116943,1.01, -0.03, 0.02, 0.06, -1.28, -1.22, 35.62, 39.16, 21.81,
136.85117602348328,1.00, -0.03, 0.01, -0.12, -1.65, -1.22, 35.61, 39.61, 21.67,
136.96079397201538,1.00, -0.03, 0.02, 0.31, -2.44, -1.28, 35.69, 40.00, 21.47,
137.0720329284668,1.00, -0.03, 0.03, -1.10, -1.04, -0.85, 35.02, 39.73, 22.45,
137.18175625801086,1.00, -0.03, 0.03, -2.08, -0.73, -1.34, 34.85, 39.97, 21.57,
137.29243206977844,1.00, -0.03, 0.02, -2.99, 0.37, -0.24, 34.89, 39.61, 22.38,
137.40146040916443,1.00, -0.03, 0.03, -1.22, -0.73, 0.31, 34.66, 39.54, 21.68,
137.50999450683594,1.00, -0.03, 0.03, 1.28, -1.10, -0.49, 35.19, 39.93, 21.08,
137.62049460411072,1.00, -0.03, 0.02, 1.53, -1.16, -0.37, 35.21, 39.78, 21.80,
137.7297658920288,1.00, -0.03, 0.02, 0.18, 0.37, -0.73, 35.36, 39.87, 21.95,
137.8390543460846,1.01, -0.03, 0.03, -1.10, -0.61, 0.24, 34.85, 39.72, 22.51,
137.94918870925903,1.00, -0.03, 0.03, -1.40, -0.37, -0.43, 35.50, 39.29, 22.06,
138.05899357795715,1.00, -0.03, 0.03, -0.73, -0.18, 0.00, 35.25, 39.64, 21.19,
138.16924953460693,1.00, -0.03, 0.02, 0.18, 0.31, -0.67, 35.47, 39.94, 21.35,
138.27939414978027,1.00, -0.03, 0.02, -0.06, 0.31, -0.37, 35.84, 39.93, 22.25,
138.38930535316467,1.00, -0.03, 0.02, -0.92, 0.43, -0.55, 35.56, 39.56, 22.09,
138.49932217597961,1.00, -0.03, 0.02, -1.65, 0.24, -1.04, 35.78, 39.92, 21.57,
138.60913491249084,1.00, -0.03, 0.01, 0.00, -0.24, -0.79, 35.18, 40.09, 21.64,
138.72090339660645,1.01, -0.03, 0.02, 0.92, -0.67, -1.10, 35.16, 39.69, 21.56,
138.83226990699768,1.00, -0.03, 0.02, 0.49, -0.43, -0.61, 35.69, 39.76, 22.24,
138.94237756729126,1.00, -0.03, 0.02, -0.73, 0.12, -0.31, 35.73, 40.03, 21.25,
139.0520441532135,1.00, -0.02, 0.02, -0.98, 0.61, 0.12, 35.82, 39.73, 21.91,
139.16213631629944,1.00, -0.02, 0.01, -1.16, -1.04, -0.24, 35.51, 39.10, 22.47,
139.27344179153442,1.00, -0.02, 0.02, -0.98, -1.10, -0.37, 35.47, 39.23, 22.22,
139.38330149650574,1.00, -0.02, 0.02, -0.37, -0.79, -0.92, 35.50, 39.72, 21.95,
139.4929394721985,1.01, -0.02, 0.02, -0.31, 0.43, -0.61, 35.16, 39.31, 21.80,
139.60295867919922,1.00, -0.03, 0.02, -0.06, 0.31, -0.37, 35.50, 39.84, 22.67,
139.7135670185089,1.00, -0.03, 0.01, -0.49, 0.06, -0.31, 34.96, 39.76, 22.66,
139.8231658935547,1.00, -0.03, 0.01, -0.73, -0.37, -0.31, 35.28, 39.54, 22.30,
139.93281865119934,1.01, -0.02, 0.01, -0.61, 0.06, 0.12, 35.42, 39.29, 22.12,
140.04157662391663,1.00, -0.03, 0.01, -0.24, -0.92, -0.49, 35.47, 39.33, 22.73,
140.15263271331787,1.00, -0.02, 0.01, -0.24, -1.04, -0.55, 35.45, 39.51, 21.51,
140.2633638381958,1.00, -0.02, 0.02, -0.85, -0.37, -0.55, 36.08, 38.99, 22.31,
140.37306666374207,1.00, -0.02, 0.01, -0.73, -0.06, -0.55, 36.44, 39.72, 22.30,
140.48267030715942,1.00, -0.02, 0.01, -0.55, -0.24, -0.49, 35.60, 39.10, 22.42,
140.59366393089294,1.00, -0.02, 0.00, 0.24, 0.79, -0.37, 35.27, 39.48, 21.47,
140.70461583137512,1.00, -0.02, 0.01, -0.12, -0.18, -0.85, 35.93, 39.71, 22.42,
140.81586384773254,1.00, -0.02, 0.02, -0.37, -0.37, -0.67, 35.44, 39.99, 22.46,
140.9256989955902,1.00, -0.02, 0.02, -0.61, -1.34, -0.31, 35.67, 39.18, 21.92,
141.03582668304443,1.00, -0.02, 0.01, -0.49, -0.67, -0.31, 35.73, 39.62, 21.44,
141.14673519134521,1.00, -0.02, 0.02, -0.37, -0.06, -0.37, 35.50, 38.96, 22.06,
141.25678873062134,1.00, -0.02, 0.02, 0.18, -0.31, -0.24, 35.84, 39.65, 22.77,
141.36699414253235,1.00, -0.02, 0.01, -0.73, 0.31, -0.49, 35.34, 39.22, 22.85,
141.47725081443787,1.00, -0.02, 0.01, -0.12, -0.92, -1.10, 35.46, 39.23, 20.69,
141.5872597694397,1.00, -0.02, 0.01, 0.00, -0.79, -0.79, 35.71, 39.79, 23.10,
141.6975212097168,1.00, -0.03, 0.02, 0.55, -0.49, -0.73, 35.64, 39.67, 21.74,
141.80694437026978,1.00, -0.03, 0.01, 0.06, 0.06, -0.49, 35.74, 39.81, 22.09,
141.91768097877502,1.01, -0.03, 0.02, -1.22, -0.55, 0.00, 35.77, 39.44, 21.12,
142.02846598625183,1.00, -0.02, 0.01, -1.34, 0.24, 0.00, 35.50, 39.83, 22.42,
142.1378834247589,1.00, -0.02, 0.02, -0.43, -1.16, -0.37, 35.74, 39.42, 21.35,
142.24934005737305,1.00, -0.02, 0.01, -0.18, -1.40, -0.43, 36.01, 39.31, 21.34,
142.3587453365326,1.00, -0.02, 0.02, -0.61, -1.59, -0.18, 35.29, 39.49, 22.22,
142.46915435791016,1.00, -0.01, 0.03, -0.61, -2.20, -0.12, 35.52, 39.23, 22.61,
142.57812595367432,1.02, -0.03, 0.03, -3.66, -0.49, 0.00, 36.05, 39.58, 20.98,
142.68776845932007,1.00, -0.02, 0.02, -4.64, -3.66, 2.26, 35.71, 39.44, 21.70,
142.7978801727295,1.00, -0.01, 0.03, -3.66, -2.93, 1.71, 35.85, 38.70, 21.37,
142.90774202346802,1.00, 0.01, 0.04, -1.22, -1.83, 1.71, 36.58, 39.44, 21.39,
143.01790761947632,1.00, 0.05, 0.02, 11.41, -3.66, 0.92, 36.49, 39.49, 21.62,
143.12809944152832,1.01, -0.05, -0.02, 15.01, 7.02, 7.08, 36.24, 38.60, 21.00,
143.23791909217834,0.92, -0.16, -0.05, 8.42, -2.56, 8.36, 36.95, 37.78, 22.09,
143.34753704071045,1.04, -0.03, -0.03, 20.45, -15.69, 9.16, 36.80, 37.18, 22.42,
143.45712661743164,1.00, 0.06, 0.10, 48.28, 2.14, 0.79, 37.04, 35.75, 25.33,
143.56611895561218,0.99, 0.11, 0.11, 42.42, -3.85, 1.46, 37.38, 34.20, 26.16,
143.67618107795715,0.98, 0.10, 0.15, 30.82, -21.42, -5.68, 36.96, 33.36, 26.86,
143.78560733795166,0.95, 0.04, 0.17, 22.28, -7.57, -5.98, 36.80, 33.09, 28.23,
143.89497113227844,1.01, 0.04, 0.19, -7.75, -13.43, -7.32, 36.78, 33.02, 26.07,
144.0054259300232,1.01, -0.00, 0.20, -11.41, -11.84, -5.55, 36.67, 33.79, 26.12,
144.11586260795593,0.91, -0.03, 0.25, -7.02, -1.22, 1.53, 36.90, 35.58, 23.89,
144.22592306137085,0.92, -0.04, 0.25, 0.98, -15.20, -10.01, 36.43, 35.24, 23.62,
144.33468627929688,0.97, -0.06, 0.27, -7.39, 1.28, -4.09, 36.44, 35.73, 23.23,
144.4453513622284,0.97, -0.03, 0.24, -6.71, -2.32, -2.08, 36.46, 36.04, 22.40,
144.55492520332336,0.91, -0.07, 0.21, -0.67, 7.02, -3.60, 36.65, 36.87, 21.50,
144.6650629043579,0.95, -0.09, 0.24, -2.38, 0.98, -2.50, 36.45, 36.77, 22.07,
144.77464723587036,0.97, -0.04, 0.24, -1.53, 5.55, -1.65, 36.61, 36.34, 23.08,
144.88520979881287,1.01, -0.06, 0.26, 2.32, -8.30, -2.01, 36.40, 36.55, 23.16,
144.99523878097534,0.98, -0.05, 0.22, -0.73, 5.55, -1.77, 36.68, 36.89, 22.20,
145.10481524467468,0.97, -0.07, 0.21, 1.04, 2.93, -1.89, 36.39, 36.89, 22.44,
145.21394848823547,0.97, -0.07, 0.22, -2.32, 1.89, -0.85, 36.49, 36.83, 22.83,
145.32450795173645,0.98, -0.06, 0.21, -4.39, 3.78, -0.73, 36.65, 36.82, 22.30,
145.43374109268188,0.97, -0.06, 0.19, -1.95, -3.66, 3.11, 37.12, 36.45, 22.55,
145.5442669391632,0.97, -0.06, 0.21, -3.60, 2.14, -0.12, 36.78, 36.89, 22.79,
145.65424227714539,0.98, -0.04, 0.21, -1.34, -2.26, -2.38, 36.89, 36.68, 22.97,
145.76451301574707,0.99, -0.05, 0.21, 0.49, 0.67, -1.22, 36.60, 36.85, 22.67,
145.87377738952637,0.97, -0.06, 0.22, -0.31, 1.16, -1.77, 36.49, 36.78, 23.01,
145.98454332351685,0.97, -0.03, 0.21, -1.83, 1.16, -2.44, 35.62, 35.93, 22.47,
146.0954294204712,0.98, -0.06, 0.20, 0.98, 1.34, -0.31, 36.68, 36.21, 22.62,
146.20392513275146,0.99, -0.06, 0.19, 0.49, 0.61, -0.12, 36.40, 36.52, 22.19,
146.3141438961029,0.98, -0.06, 0.19, 0.55, 0.43, 0.43, 36.32, 36.27, 22.80,
146.42394614219666,0.98, -0.07, 0.20, -1.34, -0.12, -0.73, 36.46, 36.29, 22.42,
146.53442001342773,0.99, -0.05, 0.19, -0.55, 1.77, -0.67, 36.35, 36.60, 22.63,
146.64417505264282,0.98, -0.06, 0.19, -0.85, 0.43, -0.61, 36.32, 36.94, 23.25,
146.7538344860077,0.99, -0.05, 0.18, -0.61, 0.92, 0.24, 35.96, 36.78, 22.16,
146.86408257484436,0.98, -0.06, 0.18, 0.37, -2.20, -0.31, 35.36, 36.60, 23.88,
146.97435307502747,0.98, -0.06, 0.19, -0.61, -2.01, 0.06, 35.74, 36.91, 23.33,
147.08280038833618,0.98, -0.06, 0.20, -1.71, -2.20, 0.18, 35.73, 36.34, 21.92,
