Time (s),Accel_X,Accel_Y,Accel_Z,Gyro_X,Gyro_Y,Gyro_Z,Mag_X,Mag_Y,Mag_Z
0.0,
0.0013620853424072266,0.98, 0.00, 0.19, -0.55, 1.10, -0.92, 32.17, 8.96, 35.44,
0.0013620853424072266,0.98, -0.01, 0.18, 3.48, -1.46, -0.12, 31.62, 8.79, 35.03,
0.0024306774139404297,0.99, -0.01, 0.17, 1.34, 0.00, -0.67, 32.70, 8.24, 34.40,
0.0034151077270507812,0.98, 0.00, 0.19, 0.24, -0.61, 0.55, 32.46, 8.24, 35.66,
0.004426717758178711,0.97, 0.01, 0.18, 2.01, -0.49, -1.10, 32.14, 8.36, 35.40,
0.004426717758178711,0.95, 0.00, 0.19, 6.90, 6.10, -5.07, 31.91, 8.11, 35.29,
0.005429506301879883,0.97, -0.01, 0.15, 11.05, 6.23, -7.75, 31.60, 8.48, 35.80,
0.006429195404052734,0.99, -0.09, 0.13, 16.17, 1.10, -10.50, 31.49, 8.86, 35.39,
0.006429195404052734,1.05, -0.12, 0.17, 10.86, -5.74, -11.84, 32.58, 8.34, 36.58,
0.007985353469848633,1.07, -0.04, 0.18, 8.12, -8.97, 28.32, 32.19, 7.29, 35.23,
0.007985353469848633,0.97, -0.03, 0.20, 15.56, -24.35, 30.09, 32.32, 4.72, 33.31,
0.00903940200805664,0.96, 0.02, 0.32, 16.97, -21.91, 18.31, 32.45, 2.73, 32.35,
0.010109663009643555,0.91, 0.02, 0.31, 11.54, 6.96, 7.81, 32.50, 1.49, 30.29,
0.010109663009643555,1.17, -0.00, 0.36, -5.80, 63.35, 2.26, 30.68, 0.54, 31.42,
0.011118650436401367,1.14, 0.14, 0.11, 23.62, 55.97, 13.18, 28.47, 1.14, 36.41,
0.012232542037963867,1.06, 0.02, -0.06, 2.44, 45.10, 16.97, 26.57, 1.10, 38.73,
0.013004779815673828,1.01, 0.09, -0.21, -27.71, 22.71, 5.74, 24.58, 1.95, 41.16,
0.013004779815673828,1.09, 0.13, -0.20, -1.83, 9.40, 18.07, 22.12, 3.04, 42.69,
0.014132261276245117,0.81, 0.23, -0.14, -44.43, 0.00, 33.39, 20.68, 3.63, 44.26,
0.015128850936889648,0.87, 0.28, -0.22, -26.43, 5.86, 15.93, 20.01, 4.33, 44.27,
0.01613140106201172,0.85, 0.20, -0.14, -0.67, 12.15, 0.61, 19.18, 4.81, 44.36,
0.01613140106201172,0.78, 0.24, -0.28, 8.36, -13.85, -5.80, 19.40, 4.61, 45.54,
0.017312288284301758,0.88, 0.23, -0.19, -8.24, -8.48, -9.28, 20.23, 4.65, 44.89,
0.01844024658203125,0.97, 0.36, -0.16, -13.73, -9.83, -23.25, 21.18, 6.67, 46.79,
0.01844024658203125,1.07, 0.25, -0.22, 1.71, -14.16, -33.39, 22.67, 7.04, 47.45,
0.0194394588470459,1.06, 0.13, -0.17, 4.94, -16.66, -36.32, 25.55, 6.18, 46.91,
0.020433664321899414,1.04, -0.03, -0.14, 18.01, -12.82, -42.97, 27.47, 7.02, 44.35,
0.021439790725708008,1.08, -0.25, -0.16, -22.09, -4.64, -9.03, 27.59, 7.78, 42.94,
0.022040128707885742,1.14, -0.37, -0.15, 16.85, -18.55, 12.57, 29.14, 9.67, 42.29,
0.022923946380615234,0.95, -0.27, -0.01, -6.16, -9.22, 1.95, 30.93, 8.78, 40.48,
0.022923946380615234,0.80, -0.14, -0.12, -33.57, -8.73, 21.55, 31.70, 8.76, 39.60,
0.024065256118774414,1.00, -0.02, -0.03, -62.74, -4.58, 20.26, 31.25, 10.52, 41.10,
0.024065256118774414,0.94, 0.12, 0.03, -58.17, -21.67, 18.55, 32.13, 11.87, 40.72,
0.025049448013305664,0.86, -0.04, 0.18, -31.31, -31.25, 48.34, 33.59, 12.28, 38.71,
0.02604985237121582,1.14, 0.19, 0.04, -83.01, -17.82, 41.87, 34.66, 11.25, 37.28,
0.02604985237121582,0.82, 0.27, -0.00, -57.68, -27.71, 43.70, 37.10, 11.38, 35.08,
0.027052879333496094,0.85, 0.33, 0.04, -70.98, -8.73, 20.26, 37.40, 11.40, 34.05,
0.027052879333496094,0.82, 0.35, -0.00, -88.38, 5.55, 5.49, 36.87, 13.96, 34.01,
0.02819514274597168,0.94, 0.39, -0.18, -76.54, 8.91, -6.35, 36.85, 17.27, 34.91,
0.02898097038269043,0.85, 0.43, -0.19, -99.30, 5.19, -0.43, 36.36, 21.61, 34.31,
0.02898097038269043,0.96, 0.53, -0.24, -54.08, 1.95, -5.86, 35.67, 25.84, 32.15,
0.02993464469909668,0.90, 0.33, -0.30, -0.92, 5.37, -2.81, 35.82, 27.10, 32.43,
0.02993464469909668,0.90, 0.21, -0.29, -24.48, 13.24, -21.48, 35.12, 27.64, 32.13,
0.03093552589416504,0.90, 0.40, -0.50, 13.67, 46.81, -9.22, 34.06, 30.00, 33.26,
0.03193783760070801,0.99, 0.28, -0.53, -10.44, 16.66, 7.93, 33.36, 29.93, 35.41,
0.03193783760070801,0.88, 0.29, -0.49, 8.54, 14.77, 1.40, 33.40, 29.35, 36.16,
0.03297591209411621,0.85, 0.27, -0.55, -5.98, 0.98, 3.42, 32.48, 28.83, 38.16,
0.03297591209411621,0.82, 0.30, -0.53, -5.37, 1.04, 3.48, 33.13, 28.92, 37.50,
0.03397679328918457,0.83, 0.29, -0.52, -4.39, -2.26, 2.14, 33.50, 28.67, 36.68,
0.03397679328918457,0.82, 0.30, -0.50, -0.55, -2.26, 0.06, 32.96, 28.87, 36.27,
0.03505206108093262,0.83, 0.29, -0.51, 2.75, -0.98, 0.61, 33.11, 28.93, 35.06,
0.03505206108093262,0.83, 0.30, -0.50, -0.12, -2.93, 0.55, 32.98, 28.75, 36.69,
0.03604745864868164,0.81, 0.29, -0.48, -1.83, -1.59, -2.93, 32.78, 28.45, 36.17,
0.03604745864868164,0.83, 0.29, -0.48, 3.23, -0.55, -2.87, 32.70, 28.27, 35.52,
0.03705120086669922,0.85, 0.29, -0.50, 5.13, -0.73, -3.85, 32.76, 28.49, 36.77,
0.03705120086669922,0.86, 0.29, -0.50, 4.94, -5.07, -4.88, 32.74, 29.30, 35.99,
0.038678884506225586,0.84, 0.28, -0.46, 4.21, -5.13, -4.27, 32.80, 28.85, 35.82,
0.038804054260253906,0.96, 0.33, -0.50, 9.46, -16.54, -4.76, 32.67, 29.19, 35.94,
0.0398097038269043,1.06, 0.38, -0.49, 32.84, -42.54, -25.88, 34.18, 28.58, 34.83,
0.0398097038269043,0.98, 0.32, -0.36, 33.57, -62.93, -52.86, 34.56, 30.27, 32.18,
0.040812015533447266,0.89, 0.31, -0.28, 75.74, -37.17, -45.23, 34.74, 31.21, 30.02,
0.040812015533447266,0.99, -0.02, -0.07, 129.09, 8.42, -34.48, 33.81, 30.21, 32.41,
0.041808128356933594,0.92, 0.06, -0.02, 83.44, 0.79, -16.78, 33.67, 28.97, 35.69,
0.041808128356933594,0.93, -0.12, -0.09, 108.22, -9.22, 6.96, 37.48, 23.16, 38.64,
0.04280996322631836,1.04, -0.03, -0.02, 78.98, -20.94, -3.17, 35.77, 18.47, 38.77,
0.0438075065612793,1.00, -0.06, 0.08, 60.85, -39.55, 0.18, 37.48, 15.33, 35.55,
0.0438075065612793,0.73, -0.09, 0.13, 20.20, -29.60, -12.76, 38.93, 13.90, 34.86,
0.044814348220825195,0.95, 0.00, 0.18, 14.47, -13.98, 3.91, 40.14, 13.23, 31.63,
0.044814348220825195,1.04, -0.17, 0.21, -0.67, 2.50, -7.57, 40.94, 13.67, 31.14,
0.045806169509887695,0.93, -0.10, 0.19, -16.36, 13.24, 0.43, 40.66, 13.90, 32.13,
0.045806169509887695,1.00, -0.03, 0.16, -33.63, 5.62, -7.39, 40.52, 16.02, 33.47,
0.046813011169433594,0.95, -0.11, 0.19, -35.77, 13.92, 1.71, 40.09, 17.27, 34.05,
0.04781317710876465,0.98, -0.06, 0.12, -45.41, 16.91, -5.68, 38.88, 19.81, 34.55,
0.04781317710876465,0.93, -0.12, 0.09, -47.24, 23.07, 2.14, 37.88, 21.69, 35.16,
0.0488133430480957,0.92, -0.09, 0.02, -54.02, 41.32, 8.00, 37.24, 24.15, 35.41,
0.049445152282714844,0.75, -0.05, 0.01, -7.87, 45.47, 37.29, 34.51, 24.69, 39.94,
0.049445152282714844,0.77, 0.10, -0.31, -5.19, 44.86, 43.27, 32.01, 23.39, 41.78,
0.05057501792907715,0.98, 0.26, -0.35, -39.43, 24.96, 18.80, 30.38, 22.96, 43.14,
0.05057501792907715,0.97, 0.34, -0.42, -42.30, -5.92, 38.09, 29.77, 24.06, 43.98,
0.051572322845458984,1.00, 0.31, -0.38, -41.56, -20.26, 27.65, 31.27, 24.02, 41.52,
0.051572322845458984,0.94, 0.36, -0.35, -21.67, -18.92, 11.84, 31.97, 25.11, 40.42,
0.05257558822631836,0.93, 0.36, -0.35, -7.69, -13.73, 4.39, 33.86, 25.89, 39.43,
0.05358386039733887,0.92, 0.35, -0.25, -3.30, 0.85, 0.18, 34.27, 24.43, 38.17,
0.05358386039733887,0.91, 0.32, -0.30, 6.16, 7.63, -6.96, 33.91, 25.33, 38.28,
0.05457329750061035,0.90, 0.25, -0.30, 3.97, 4.46, -10.86, 33.37, 26.15, 38.78,
0.05457329750061035,0.83, 0.29, -0.30, 13.49, 17.46, -16.17, 32.40, 26.60, 39.83,
0.055573463439941406,0.90, 0.16, -0.34, -9.46, 12.63, -33.26, 31.96, 27.45, 40.42,
0.055573463439941406,0.94, 0.22, -0.37, -23.44, 9.58, -35.89, 30.18, 30.71, 40.61,
0.05658102035522461,0.98, 0.03, -0.35, -13.85, -2.87, -4.58, 28.71, 34.61, 41.16,
0.05757594108581543,0.94, 0.09, -0.41, -0.67, 1.71, -5.25, 28.69, 35.16, 39.07,
0.05757594108581543,0.98, 0.04, -0.40, 0.43, 5.74, -2.56, 27.43, 35.71, 40.17,
0.05857491493225098,0.95, 0.05, -0.41, -6.53, 3.85, -1.89, 27.54, 36.13, 39.97,
0.05857491493225098,0.93, 0.05, -0.39, -6.16, -1.77, 4.21, 27.89, 36.88, 39.65,
0.05975174903869629,0.92, 0.03, -0.39, -5.25, -4.46, 4.94, 27.87, 36.77, 40.19,
0.05975174903869629,0.94, 0.08, -0.38, -9.16, -5.62, 7.02, 28.41, 36.22, 39.25,
0.060575246810913086,0.94, 0.05, -0.40, -5.49, -8.73, 6.35, 29.63, 36.32, 37.44,
0.06157088279724121,0.95, 0.10, -0.40, -5.74, 5.07, 1.46, 30.02, 36.47, 37.87,
0.06157088279724121,0.93, 0.10, -0.42, 2.81, -1.53, -2.38, 29.08, 36.76, 38.67,
0.06257224082946777,0.94, 0.06, -0.42, 12.39, -4.58, -5.43, 29.00, 36.38, 37.46,
0.06257224082946777,0.93, 0.06, -0.40, 9.58, -6.84, -4.33, 28.85, 35.85, 38.06,
0.06356930732727051,0.97, 0.09, -0.40, 5.00, -6.16, -2.93, 28.92, 36.05, 38.54,
0.06356930732727051,1.11, 0.15, -0.41, 12.45, -19.90, 3.78, 30.43, 35.21, 38.67,
0.06457185745239258,1.09, 0.15, -0.36, 23.62, -27.77, 1.40, 31.95, 33.74, 37.84,
0.06457185745239258,0.90, 0.19, -0.23, 53.04, -33.57, -0.18, 33.84, 31.84, 37.66,
0.06557250022888184,0.89, 0.19, -0.25, 90.33, -11.54, -3.54, 35.29, 27.91, 37.89,
0.06656932830810547,1.00, 0.16, -0.12, 46.14, -10.19, -18.68, 35.50, 25.57, 38.01,
0.06656932830810547,0.89, 0.15, -0.14, 31.07, -7.26, -34.85, 35.86, 24.77, 39.28,
0.06756997108459473,0.85, -0.03, 0.05, 61.16, -7.02, -30.88, 36.44, 24.02, 39.10,
0.06756997108459473,0.91, -0.12, 0.02, 36.01, -18.31, -28.75, 36.32, 23.55, 38.89,
0.06857800483703613,1.00, -0.30, 0.10, 2.50, -12.33, -19.04, 36.69, 24.43, 38.98,
0.06857800483703613,1.05, -0.14, 0.10, -32.96, -7.08, -6.35, 35.91, 26.37, 37.82,
0.06857800483703613,1.00, -0.17, 0.09, -26.98, -15.38, -7.75, 37.82, 28.11, 36.98,
0.07020139694213867,0.99, -0.07, 0.12, 20.39, -9.16, 30.76, 38.37, 28.48, 35.14,
0.07132935523986816,0.89, 0.09, 0.15, 36.38, -13.55, 31.74, 39.17, 24.45, 34.09,
0.07132935523986816,0.96, -0.15, 0.09, 25.88, -13.24, 24.60, 40.81, 19.09, 34.03,
0.07232379913330078,0.93, 0.11, 0.14, 14.04, 0.98, 3.05, 41.48, 17.58, 32.85,
0.07232379913330078,1.02, -0.00, 0.14, 0.43, -2.44, 6.65, 41.60, 16.44, 33.68,
0.07333683967590332,0.97, 0.00, 0.19, 12.08, -2.14, 3.05, 41.64, 15.61, 32.53,
0.07333683967590332,1.05, 0.04, 0.24, 4.52, 0.73, -5.43, 42.02, 15.09, 32.95,
0.07432270050048828,0.97, 0.03, 0.19, -5.19, 0.12, -0.24, 41.87, 15.63, 33.42,
0.07521224021911621,1.01, 0.03, 0.16, -14.83, 4.70, -9.28, 41.78, 16.76, 34.40,
0.07521224021911621,0.98, 0.05, 0.12, -14.53, -2.44, -9.40, 41.76, 17.80, 33.14,
0.07632637023925781,0.91, -0.05, 0.16, -29.24, 1.83, -10.62, 41.32, 18.90, 33.83,
0.07632637023925781,1.01, -0.09, 0.16, -33.08, 16.11, -8.61, 40.47, 21.13, 34.41,
0.0775449275970459,0.95, -0.10, 0.14, -23.68, 19.17, -0.31, 39.93, 22.99, 35.42,
0.0775449275970459,0.98, -0.06, 0.12, -17.09, 19.84, 15.44, 38.93, 23.86, 35.85,
0.07854366302490234,0.91, -0.02, 0.04, -16.48, 25.94, 20.94, 37.82, 23.10, 37.50,
0.0795445442199707,0.78, -0.00, -0.12, -14.65, 53.04, 5.92, 35.82, 23.58, 40.19,
0.08054256439208984,0.79, 0.00, -0.20, -29.72, 40.34, 0.12, 33.14, 24.40, 43.55,
0.08153986930847168,1.00, 0.18, -0.27, -14.65, 14.16, 5.92, 31.19, 26.82, 42.98,
0.08153986930847168,0.97, 0.20, -0.40, -10.01, 7.14, 11.66, 30.64, 27.76, 44.25,
0.08254122734069824,1.04, 0.10, -0.29, -51.45, 10.99, 0.92, 30.07, 28.86, 44.12,
0.08254122734069824,1.00, 0.06, -0.40, -15.14, 14.71, -7.08, 27.28, 32.01, 44.14,
0.08354568481445312,1.02, 0.02, -0.38, -22.77, 11.96, -5.74, 26.76, 34.20, 43.87,
0.08354568481445312,0.95, 0.03, -0.45, -14.22, 7.02, -11.11, 25.09, 36.17, 43.84,
0.08453893661499023,0.95, 0.12, -0.51, -9.09, 17.94, 2.50, 23.71, 38.00, 43.74,
0.08555030822753906,0.92, -0.01, -0.47, -9.95, 23.25, 1.83, 23.32, 38.43, 44.19,
0.08555030822753906,0.94, -0.00, -0.51, 16.42, 12.51, 3.72, 22.33, 38.12, 43.05,
0.08654165267944336,0.91, -0.00, -0.54, 7.26, 4.27, 2.56, 21.63, 36.88, 46.90,
0.08654165267944336,0.83, -0.03, -0.50, -6.16, 2.75, -1.89, 21.61, 37.08, 45.34,
0.0875394344329834,0.84, -0.04, -0.52, -10.38, 2.08, -3.42, 21.53, 37.62, 45.18,
0.0875394344329834,0.86, -0.04, -0.51, -22.77, 8.67, 0.43, 21.18, 38.61, 45.32,
0.08853793144226074,0.87, -0.07, -0.55, -15.38, 10.80, 0.18, 20.37, 40.22, 44.57,
0.08976459503173828,0.85, -0.07, -0.58, -15.08, 16.60, 5.13, 19.96, 41.10, 42.54,
0.08976459503173828,0.82, -0.04, -0.59, -8.91, 10.74, -0.24, 18.85, 41.65, 44.18,
0.09043288230895996,0.83, -0.07, -0.58, 5.62, 0.18, -1.16, 18.57, 40.83, 43.80,
0.09153914451599121,0.80, -0.07, -0.59, 0.37, -0.43, -2.99, 18.87, 40.66, 43.29,
0.09153914451599121,0.82, -0.08, -0.58, -1.65, 0.00, -2.56, 18.82, 40.22, 43.80,
0.09254240989685059,0.82, -0.07, -0.59, -3.97, 2.44, 0.55, 18.48, 41.31, 44.67,
0.09254240989685059,0.80, -0.10, -0.61, -9.16, 8.67, -1.77, 17.79, 41.99, 44.78,
0.09354043006896973,0.79, -0.10, -0.62, -12.63, 12.82, -3.05, 16.98, 42.09, 43.77,
0.09453940391540527,0.77, -0.10, -0.64, -6.10, 9.70, -0.18, 16.58, 42.69, 43.82,
0.09453940391540527,0.77, -0.13, -0.67, 0.92, 2.20, 6.16, 16.96, 43.01, 43.07,
0.095550537109375,0.77, -0.07, -0.66, 2.20, -2.14, 4.52, 17.07, 42.60, 43.53,
0.09656333923339844,0.77, -0.08, -0.63, 3.17, -2.93, 5.98, 17.26, 41.64, 41.70,
0.09656333923339844,0.80, -0.08, -0.66, -6.10, -5.13, 2.93, 18.42, 41.71, 43.29,
0.09754419326782227,0.78, -0.10, -0.65, 1.95, -4.15, 1.59, 18.59, 41.38, 42.66,
0.09754419326782227,0.78, -0.09, -0.64, -5.86, -0.49, -2.14, 18.14, 41.55, 42.07,
0.0985417366027832,0.79, -0.09, -0.65, 3.85, -9.03, -2.56, 18.85, 41.80, 41.64,
0.0985417366027832,0.89, -0.07, -0.62, 11.47, -17.94, 3.11, 19.68, 41.85, 42.47,
0.10016417503356934,1.04, -0.03, -0.62, 29.48, -40.59, 5.92, 20.96, 40.86, 42.74,
0.10016417503356934,1.04, 0.04, -0.60, 53.77, -59.51, 4.27, 25.79, 36.63, 43.36,
0.10129904747009277,0.80, 0.15, -0.46, 61.71, -47.00, 5.31, 29.57, 32.23, 41.42,
0.10129904747009277,0.90, 0.12, -0.42, 48.95, -0.55, -0.55, 30.14, 28.21, 42.64,
0.1022331714630127,0.89, 0.14, -0.25, 15.08, -25.88, -6.59, 30.88, 26.57, 42.54,
0.1022331714630127,0.81, 0.13, -0.18, 45.59, -17.58, -35.95, 32.62, 25.22, 40.61,
0.10328936576843262,1.03, 0.02, -0.14, 30.03, -27.28, -24.41, 32.81, 24.24, 42.27,
0.10429096221923828,0.96, -0.02, -0.03, 55.66, -4.03, -12.63, 33.94, 22.29, 42.25,
0.10429096221923828,0.88, -0.12, -0.07, 39.61, -42.05, -0.79, 35.86, 19.32, 40.01,
0.10528826713562012,0.95, -0.08, 0.02, 5.49, -22.58, -4.64, 37.79, 18.85, 37.82,
0.10528826713562012,1.08, -0.10, 0.12, -9.64, -24.11, -5.31, 38.68, 18.96, 36.06,
0.10670614242553711,0.81, -0.08, 0.11, -12.08, 7.93, -5.31, 38.70, 20.06, 34.85,
0.10774731636047363,1.11, -0.06, 0.10, -28.44, 16.48, -5.98, 39.04, 20.95, 35.88,
0.10774731636047363,1.03, -0.07, -0.00, -21.79, 14.40, 1.59, 37.61, 22.73, 36.80,
0.10883450508117676,1.00, -0.01, -0.01, -1.40, -19.04, 4.33, 37.60, 23.29, 35.78,
0.10883450508117676,1.01, 0.04, 0.10, 6.53, -29.11, 21.97, 39.40, 21.81, 33.76,
0.10984444618225098,1.02, -0.00, 0.10, 0.98, -12.02, 0.85, 40.27, 20.26, 33.20,
0.10984444618225098,0.95, 0.08, 0.14, 6.65, -9.64, 5.31, 40.83, 19.71, 31.10,
0.11084842681884766,0.99, 0.06, 0.19, 30.76, -7.51, 4.76, 40.52, 18.76, 31.23,
0.11183524131774902,0.92, 0.03, 0.23, 45.78, -5.13, 7.69, 41.03, 15.59, 32.31,
0.11183524131774902,1.04, 0.07, 0.26, 36.01, -4.88, 4.70, 40.73, 14.16, 31.08,
0.11283731460571289,0.95, -0.08, 0.21, 13.49, 3.78, 7.20, 41.32, 12.01, 30.70,
0.11384367942810059,1.00, 0.02, 0.25, -12.82, -4.03, -7.69, 41.14, 11.65, 30.94,
0.11483073234558105,1.00, 0.00, 0.21, -23.44, -3.48, -3.78, 41.85, 12.87, 30.47,
0.11584043502807617,0.98, 0.07, 0.19, -14.28, -6.29, -6.35, 41.36, 14.77, 30.85,
0.11683511734008789,0.98, 0.03, 0.24, 1.34, -0.55, -4.03, 40.99, 15.80, 30.11,
0.11784148216247559,0.94, 0.01, 0.25, 11.41, 1.46, 3.17, 41.87, 15.32, 29.76,
0.11784148216247559,0.97, -0.05, 0.23, -4.21, 5.68, 1.40, 41.03, 14.83, 29.86,
0.11884593963623047,1.00, 0.03, 0.17, -0.79, 2.08, -2.50, 41.33, 15.36, 30.19,
0.12084245681762695,0.95, 0.05, 0.18, 10.56, 9.28, -0.61, 40.56, 14.76, 30.51,
0.12193632125854492,1.03, -0.04, 0.19, -5.80, 4.09, 0.00, 40.39, 14.78, 31.65,
0.12306976318359375,0.93, 0.01, 0.26, -13.67, -5.55, 5.31, 39.86, 15.50, 30.86,
0.12306976318359375,0.97, -0.05, 0.22, -4.33, 0.61, 8.48, 40.38, 14.38, 30.40,
0.12406730651855469,1.08, 0.06, 0.16, -5.13, -4.03, 2.01, 40.31, 14.61, 30.54,
0.12506651878356934,0.86, 0.08, 0.10, 11.29, -0.73, 4.15, 40.30, 13.92, 31.03,
0.1260666847229004,1.05, 0.07, 0.19, -8.91, -1.28, 3.36, 40.04, 14.61, 29.99,
0.12706851959228516,0.95, -0.11, 0.16, 1.46, -0.12, -6.04, 42.70, 16.55, 30.87,
0.2122204303741455,0.99, -0.02, 0.22, -3.66, 13.67, 2.26, 41.48, 17.47, 32.13,
0.3221747875213623,0.96, -0.01, 0.22, -6.96, 5.07, -2.99, 40.82, 16.88, 32.71,
0.43141937255859375,0.96, 0.03, 0.24, 5.74, 6.47, 5.74, 40.69, 17.18, 32.75,
0.5418951511383057,1.02, -0.00, 0.21, 8.48, -0.55, 10.31, 41.42, 16.17, 33.81,
0.6516201496124268,1.07, 0.01, 0.25, -2.69, -13.79, 6.53, 41.37, 15.59, 32.62,
0.7609353065490723,1.07, 0.10, 0.21, 0.79, -23.13, 15.08, 43.23, 14.26, 31.29,
0.8693275451660156,0.88, 0.11, 0.17, 7.08, -3.30, 4.33, 42.76, 13.00, 28.77,
0.9783551692962646,1.09, 0.16, 0.26, 6.65, 12.82, 0.98, 43.02, 12.78, 31.34,
1.0873045921325684,0.88, 0.10, 0.24, 3.66, 5.92, -3.11, 42.49, 12.66, 30.99,
1.1971831321716309,0.91, 0.10, 0.20, -1.10, 2.75, -4.58, 41.37, 13.37, 32.01,
1.3069736957550049,0.98, 0.07, 0.26, 0.73, -1.89, -2.50, 41.69, 12.93, 31.12,
1.4159204959869385,1.03, 0.08, 0.30, -3.97, -3.78, -4.82, 42.08, 13.49, 30.09,
1.5253710746765137,1.06, 0.09, 0.25, -3.17, -14.10, -11.66, 41.92, 14.93, 30.73,
1.6348636150360107,0.88, 0.03, 0.14, -6.23, -18.31, -4.58, 43.01, 15.37, 30.24,
1.7451019287109375,0.96, -0.07, 0.23, -8.06, 4.70, -3.54, 43.15, 16.00, 28.87,
1.8542461395263672,0.99, 0.06, 0.27, -5.92, 18.68, 3.91, 42.32, 16.33, 30.66,
1.9646258354187012,0.88, 0.07, 0.28, 1.71, 8.18, 5.13, 41.92, 15.87, 31.08,
2.0737719535827637,0.97, 0.04, 0.29, 4.46, 10.25, 5.13, 41.33, 14.95, 32.76,
2.1831324100494385,0.97, 0.08, 0.28, -0.85, 1.95, 5.25, 41.21, 14.67, 33.59,
2.291980028152466,1.08, 0.05, 0.27, -4.70, -3.78, 4.52, 41.10, 14.26, 32.89,
2.40175199508667,1.04, 0.04, 0.20, -6.96, -9.52, 1.34, 41.39, 14.31, 33.26,
2.510671854019165,0.85, 0.18, 0.09, -3.17, -15.20, 2.26, 42.24, 13.95, 32.24,
2.6211414337158203,1.07, 0.16, 0.20, 14.53, 5.74, 4.33, 41.65, 13.72, 31.59,
2.7303593158721924,0.90, 0.09, 0.24, 6.71, 10.86, -2.69, 42.26, 12.39, 32.01,
2.8399271965026855,0.92, 0.10, 0.23, -4.15, 8.12, -9.46, 41.47, 13.20, 32.36,
2.9495697021484375,0.94, 0.13, 0.23, 1.22, 6.10, -3.54, 40.71, 13.85, 33.37,
3.059654474258423,0.99, 0.08, 0.23, -1.77, -1.89, -2.69, 40.80, 14.87, 33.87,
3.1686394214630127,1.07, 0.09, 0.23, 1.95, -9.40, -7.81, 40.83, 15.00, 33.81,
3.278930187225342,1.00, 0.04, 0.15, 4.33, -14.28, -7.51, 41.76, 15.81, 32.01,
3.38737416267395,0.92, -0.01, 0.14, -2.50, -4.58, -4.39, 42.02, 15.93, 31.10,
3.497879981994629,0.96, 0.02, 0.25, 2.01, 7.75, 1.34, 42.18, 15.84, 31.19,
3.6066460609436035,0.94, 0.06, 0.27, 5.31, 4.09, 5.55, 41.47, 15.83, 32.24,
3.7160518169403076,0.93, 0.01, 0.26, 2.50, 7.20, 5.74, 41.56, 14.43, 31.92,
3.825622081756592,1.00, 0.06, 0.30, -5.31, 2.08, 6.84, 41.30, 14.79, 32.89,
3.93471622467041,1.15, 0.02, 0.28, -14.28, -7.63, 5.00, 41.64, 14.12, 33.12,
4.044955253601074,1.01, 0.16, 0.14, -6.65, -28.93, 3.48, 41.82, 13.98, 30.70,
4.153762102127075,0.95, 0.14, 0.13, 3.17, -2.50, -1.89, 43.14, 14.12, 29.90,
4.264060735702515,0.96, 0.10, 0.27, 3.36, 9.28, -2.87, 42.88, 13.72, 30.65,
4.373769044876099,0.87, 0.13, 0.28, -0.06, 5.86, -7.32, 42.87, 13.79, 30.57,
4.483739852905273,0.88, 0.10, 0.26, 3.36, 0.31, -3.05, 42.57, 14.62, 30.37,
4.593067169189453,1.06, 0.14, 0.28, 6.16, -0.85, -11.47, 42.54, 15.26, 31.69,
4.7024827003479,1.01, 0.04, 0.24, 12.08, -29.85, -1.71, 42.36, 15.42, 30.47,
4.811877965927124,1.00, -0.03, 0.15, -1.95, -4.33, -7.87, 43.08, 15.45, 29.21,
4.921860694885254,0.95, -0.03, 0.25, 1.10, 7.02, 3.78, 43.07, 15.38, 29.70,
5.030523061752319,0.89, 0.00, 0.25, -5.98, 10.74, -1.77, 42.27, 14.97, 30.25,
5.140939235687256,0.85, 0.03, 0.33, -4.52, 9.83, 4.82, 41.71, 14.61, 29.32,
5.2504754066467285,0.92, -0.03, 0.35, -6.35, 13.92, 8.91, 41.66, 14.86, 31.32,
5.359853982925415,1.05, 0.03, 0.30, -17.82, 7.63, 8.18, 40.83, 15.04, 32.75,
5.470184087753296,1.08, 0.12, 0.27, -14.22, -17.15, 3.85, 41.58, 14.87, 32.76,
5.578519344329834,0.84, 0.15, 0.12, 2.99, 1.34, -5.80, 41.59, 15.39, 31.45,
5.6888511180877686,1.02, 0.11, 0.15, 7.14, 15.44, -7.20, 41.43, 15.25, 32.43,
5.798444986343384,0.91, 0.03, 0.18, -4.58, 12.63, -8.00, 40.41, 15.63, 33.65,
5.909009218215942,0.89, 0.10, 0.21, -8.36, 5.68, -7.45, 39.59, 16.31, 33.15,
6.018013000488281,0.99, 0.07, 0.20, 1.59, -3.36, 2.26, 40.01, 17.46, 34.55,
6.12632942199707,1.21, 0.12, 0.25, 16.91, -3.11, -1.53, 41.02, 17.15, 33.76,
6.235234260559082,0.91, -0.03, 0.11, 4.94, -27.71, 5.13, 41.48, 15.63, 33.65,
6.3445000648498535,1.04, 0.03, 0.11, -14.47, 9.83, -12.45, 41.71, 16.70, 32.03,
6.453221797943115,0.94, 0.02, 0.18, -7.26, 17.64, 1.22, 41.42, 17.11, 32.20,
6.563085317611694,0.89, 0.02, 0.19, 4.27, -9.09, 2.08, 41.38, 17.03, 34.06,
6.673156023025513,0.89, 0.01, 0.22, 0.85, 10.19, 4.39, 41.10, 16.24, 32.90,
6.782257080078125,1.18, 0.06, 0.24, -6.41, -2.56, 3.05, 39.59, 16.98, 35.52,
6.891761064529419,1.10, 0.09, 0.22, -1.89, -23.56, 9.83, 40.16, 16.80, 34.75,
7.001354455947876,0.82, 0.14, 0.00, 10.13, -9.52, -4.88, 41.70, 15.72, 34.13,
7.112205505371094,1.03, 0.05, 0.10, 12.08, 15.01, -6.35, 41.93, 15.43, 33.09,
7.2212090492248535,0.91, 0.04, 0.18, 1.46, 14.10, -7.57, 40.95, 15.20, 34.64,
7.3302271366119385,0.91, 0.09, 0.19, -2.99, 9.95, -5.37, 40.66, 16.52, 34.50,
7.439456224441528,1.07, 0.05, 0.19, 5.92, -2.08, -4.52, 40.01, 16.69, 35.55,
7.5496826171875,1.10, 0.06, 0.21, 15.08, -12.39, -0.73, 40.34, 16.96, 35.60,
7.658531665802002,0.93, -0.10, 0.08, -2.38, -21.12, -2.62, 41.53, 16.82, 33.83,
7.769020080566406,1.04, -0.05, 0.08, -16.66, 7.45, -6.65, 41.71, 16.99, 33.74,
7.8781280517578125,0.91, 0.01, 0.17, -6.77, 16.11, 2.08, 40.81, 17.92, 34.22,
7.987065553665161,0.90, -0.00, 0.18, -2.08, -0.61, 1.22, 40.31, 17.58, 34.68,
8.09669017791748,0.89, 0.01, 0.19, 1.53, 7.08, 5.19, 40.34, 17.65, 35.53,
8.20568060874939,1.11, -0.06, 0.18, -4.58, -5.19, 14.10, 40.87, 17.26, 35.13,
8.315821647644043,1.04, 0.06, 0.07, -4.39, -34.79, 5.62, 41.00, 16.52, 34.61,
8.42545223236084,1.01, 0.18, 0.04, 9.58, 6.35, 0.18, 41.80, 16.38, 33.80,
8.53475546836853,0.99, 0.05, 0.15, 16.91, 1.34, -3.78, 41.69, 15.87, 33.56,
8.644374370574951,0.88, 0.08, 0.20, 11.60, 0.92, -6.04, 41.75, 15.50, 32.86,
8.754478931427002,0.89, 0.07, 0.21, 6.35, -9.70, -4.52, 41.15, 15.64, 32.87,
8.865005016326904,1.11, 0.16, 0.23, 7.45, -16.17, -6.04, 41.71, 15.50, 33.35,
8.97418737411499,0.99, -0.15, 0.22, -4.64, -36.44, -4.09, 43.27, 15.39, 29.86,
9.083641052246094,1.02, -0.06, 0.19, -22.03, 6.35, -7.39, 43.66, 17.05, 29.61,
9.195251226425171,0.91, 0.02, 0.28, -10.07, 17.52, 3.91, 42.98, 17.72, 28.55,
9.303912878036499,0.88, -0.02, 0.26, -2.32, 11.78, 7.69, 42.83, 17.16, 30.55,
9.413756847381592,0.95, -0.06, 0.25, -8.12, 5.86, 6.90, 42.61, 16.32, 31.79,
9.522688627243042,1.08, -0.03, 0.29, -12.51, -12.39, 11.90, 42.52, 16.30, 30.76,
9.632475852966309,1.04, 0.11, 0.23, 14.22, -33.69, 29.54, 43.76, 15.14, 29.66,
9.741641759872437,0.98, 0.19, 0.14, 18.62, 19.96, 11.05, 43.96, 13.05, 28.77,
9.850274324417114,0.99, 0.09, 0.28, 4.21, 11.29, -10.07, 43.13, 12.06, 30.73,
9.961013793945312,0.78, 0.14, 0.26, 2.50, 10.99, -7.26, 42.29, 12.15, 32.03,
10.071149826049805,0.84, 0.17, 0.26, 2.38, 1.28, -7.63, 42.24, 12.87, 31.08,
10.17954158782959,1.07, 0.13, 0.28, 6.53, -2.01, -18.62, 42.19, 14.34, 31.86,
10.289509773254395,1.19, -0.12, 0.19, -2.44, -19.10, -13.92, 42.30, 15.17, 31.48,
10.398322343826294,0.94, -0.16, 0.12, -24.17, -0.79, -21.85, 42.61, 16.88, 29.79,
10.508332967758179,0.93, -0.05, 0.25, -12.51, 10.86, -1.22, 42.81, 19.17, 30.53,
10.620116472244263,0.89, -0.03, 0.29, 0.31, -3.05, 2.93, 42.13, 19.64, 30.83,
10.728463172912598,0.85, -0.06, 0.29, 2.44, 8.36, 9.83, 41.66, 18.58, 31.99,
10.83887505531311,1.16, -0.11, 0.30, 5.19, -22.71, 16.11, 41.86, 17.61, 32.56,
10.94879412651062,0.89, 0.12, 0.22, -0.67, -16.91, 7.69, 42.68, 16.63, 29.52,
11.058499574661255,1.05, 0.11, 0.14, 4.15, 19.78, 3.72, 43.02, 16.00, 29.57,
11.167378902435303,0.98, 0.08, 0.23, 8.12, 14.47, -5.68, 42.43, 15.52, 30.64,
11.278165578842163,0.87, 0.05, 0.21, 6.65, 9.22, -4.82, 41.32, 15.70, 32.80,
11.387858152389526,1.08, 0.06, 0.16, 0.79, -6.04, -9.77, 41.17, 16.32, 32.68,
11.498623132705688,1.14, 0.04, 0.30, 4.58, -19.47, -4.27, 41.16, 16.65, 31.56,
11.609305620193481,0.81, -0.09, 0.18, -9.64, -14.40, -15.32, 43.10, 16.83, 28.97,
11.720006465911865,1.09, -0.06, 0.26, -14.04, 7.08, -9.09, 42.80, 18.59, 28.19,
11.830122947692871,0.82, -0.06, 0.29, -3.78, -5.19, 9.46, 43.03, 18.79, 29.03,
11.940021753311157,0.91, -0.05, 0.28, -1.65, 13.92, 11.54, 42.16, 17.65, 31.07,
12.049755334854126,1.04, -0.03, 0.33, -3.11, -2.26, 14.83, 42.40, 16.83, 29.99,
12.160041570663452,1.10, -0.01, 0.30, -8.18, -21.73, 5.37, 43.04, 15.82, 29.39,
12.269647359848022,0.84, 0.22, 0.20, 6.53, -10.93, 8.85, 43.54, 15.26, 26.84,
12.379537105560303,1.03, 0.07, 0.22, 23.38, 9.40, 8.30, 43.66, 13.87, 27.26,
12.488534688949585,0.85, 0.07, 0.27, 18.98, 10.31, -2.38, 42.53, 12.89, 27.55,
12.59913682937622,0.86, 0.07, 0.33, 13.79, 1.53, -5.37, 42.77, 12.57, 29.66,
12.707889318466187,1.18, 0.03, 0.35, 3.72, -3.66, -8.42, 43.16, 13.28, 29.61,
12.817203760147095,1.06, -0.04, 0.30, -7.69, -31.92, -7.51, 43.10, 13.84, 28.88,
12.926892757415771,0.79, -0.17, 0.23, -38.21, 6.41, -23.80, 44.01, 15.98, 26.92,
13.035161018371582,1.12, 0.01, 0.31, -31.56, 20.69, -5.62, 43.51, 17.92, 27.58,
13.144231081008911,0.80, -0.00, 0.32, -7.02, 1.22, 15.14, 42.96, 18.30, 28.97,
13.255131244659424,0.88, -0.02, 0.28, -0.43, 11.11, 9.64, 42.66, 16.77, 29.54,
13.364181518554688,1.06, 0.00, 0.33, 3.23, -16.85, 20.94, 42.86, 15.26, 30.40,
13.473583936691284,0.98, 0.12, 0.26, 9.09, -18.62, 2.14, 43.43, 14.47, 28.83,
13.584211349487305,0.95, 0.21, 0.19, 21.91, 15.50, 7.51, 43.21, 13.54, 29.38,
13.692566633224487,0.91, 0.11, 0.26, 24.54, 14.22, -2.14, 42.55, 12.48, 29.68,
13.803046941757202,0.87, 0.10, 0.28, 14.10, 8.54, -8.30, 42.25, 12.23, 30.44,
13.912654399871826,0.90, 0.06, 0.25, 2.93, 1.71, -8.61, 42.47, 12.49, 32.39,
14.021896362304688,1.09, 0.14, 0.31, -7.63, -12.94, -14.28, 42.77, 13.48, 31.40,
14.131335020065308,0.87, -0.12, 0.20, -18.07, -13.31, -13.67, 43.33, 14.97, 30.02,
14.241602420806885,1.04, -0.04, 0.22, -29.91, 4.64, -18.37, 43.47, 17.48, 29.15,
14.351558685302734,0.88, -0.04, 0.28, -12.08, 5.49, 5.49, 43.03, 18.46, 29.79,
14.461467742919922,0.82, -0.07, 0.32, -4.88, 7.02, 7.87, 42.24, 17.80, 30.19,
14.5713210105896,1.08, -0.01, 0.33, -2.20, 4.27, 10.56, 42.50, 17.20, 30.24,
14.681498289108276,1.10, 0.03, 0.34, -5.74, -23.07, 5.00, 42.65, 16.83, 30.04,
14.791481494903564,0.86, 0.21, 0.13, 5.37, -6.77, 7.81, 43.54, 15.73, 27.59,
14.902034997940063,1.03, 0.08, 0.25, 30.76, 11.29, 10.44, 43.57, 14.55, 28.54,
15.011126279830933,0.81, 0.09, 0.28, 26.49, 18.07, -2.75, 42.80, 13.17, 28.60,
15.119476318359375,0.88, 0.08, 0.29, 13.37, 6.53, -12.08, 42.63, 13.61, 29.98,
15.22975468635559,1.18, 0.01, 0.30, -8.54, -6.41, -19.59, 42.15, 14.67, 30.32,
15.340025663375854,0.95, -0.06, 0.20, -29.30, -29.79, -3.85, 42.99, 16.00, 29.61,
15.449600458145142,1.03, -0.15, 0.19, -35.28, 1.16, -21.73, 43.04, 18.91, 28.11,
15.559256792068481,1.03, 0.08, 0.30, -21.42, 6.04, 2.56, 42.99, 20.17, 28.47,
15.671043395996094,0.76, -0.01, 0.32, -2.87, 9.09, 3.23, 42.81, 20.02, 27.64,
15.780306339263916,0.93, -0.05, 0.30, 0.73, 16.42, 1.77, 42.59, 19.82, 29.77,
15.890923261642456,1.11, -0.12, 0.34, -6.71, -2.50, 10.80, 42.24, 19.36, 29.96,
16.000404119491577,1.12, 0.04, 0.22, 0.79, -19.04, 6.16, 42.64, 19.81, 29.30,
16.111146926879883,0.89, 0.16, 0.13, 25.70, 5.43, 10.86, 42.59, 18.47, 27.26,
16.220590591430664,0.95, 0.07, 0.24, 22.34, 10.99, 1.46, 42.75, 16.75, 30.04,
16.331074714660645,0.85, 0.03, 0.26, 18.86, 14.47, -7.81, 41.97, 16.48, 30.25,
16.439162969589233,0.88, 0.08, 0.26, 18.98, -3.78, -6.35, 42.03, 16.24, 32.03,
16.548758506774902,1.15, 0.09, 0.32, 9.52, -12.27, -8.12, 42.75, 15.98, 29.88,
16.6581928730011,0.97, -0.14, 0.20, -3.17, -27.04, -5.19, 43.04, 17.00, 28.72,
16.76892328262329,0.98, -0.13, 0.21, -25.21, 7.02, -11.11, 43.75, 17.18, 27.95,
16.878397464752197,0.88, -0.01, 0.27, -13.49, 14.10, 4.09, 43.42, 18.64, 29.79,
16.989057540893555,0.86, -0.03, 0.29, -4.82, 7.51, 11.54, 42.90, 17.79, 29.74,
17.098390340805054,0.97, -0.03, 0.31, -1.77, 6.84, 8.54, 42.08, 17.20, 31.10,
17.2074077129364,1.18, -0.06, 0.33, 1.53, -6.53, 7.20, 42.80, 16.54, 30.47,
17.316426753997803,0.87, 0.16, 0.20, 11.60, -14.04, 6.41, 43.75, 15.92, 29.80,
17.425302028656006,1.09, 0.07, 0.22, 26.18, 11.41, 7.69, 43.88, 15.23, 28.55,
17.53446316719055,0.84, 0.06, 0.28, 14.95, 11.35, -5.37, 43.40, 14.29, 28.75,
17.645373582839966,0.89, 0.08, 0.28, 13.18, 7.87, -6.84, 42.72, 14.06, 30.24,
17.755541801452637,1.04, -0.00, 0.33, 5.92, -2.50, -7.45, 43.04, 14.07, 30.36,
17.86582064628601,1.11, -0.03, 0.31, -4.33, -18.98, -6.16, 43.69, 15.12, 28.92,
17.97523021697998,0.81, -0.19, 0.17, -25.51, -12.76, -24.78, 43.88, 16.55, 27.31,
18.085838556289673,1.10, -0.03, 0.29, -29.17, 10.01, -12.82, 44.40, 19.13, 26.59,
18.19577646255493,0.72, -0.08, 0.31, -9.58, 2.26, 10.19, 43.53, 19.73, 27.42,
18.305080890655518,0.86, -0.12, 0.34, -8.97, 11.78, 8.54, 43.04, 18.65, 28.76,
18.414478540420532,1.12, -0.03, 0.41, -18.62, 2.56, 13.55, 43.18, 18.82, 28.99,
18.523743629455566,1.11, -0.00, 0.35, -23.74, -19.17, 3.72, 43.37, 18.82, 27.47,
18.633572101593018,0.82, 0.16, 0.17, 5.37, -0.12, 5.74, 43.60, 18.63, 26.07,
18.742732048034668,1.07, 0.08, 0.25, 25.45, 10.25, 8.73, 43.69, 17.21, 27.48,
18.851648092269897,0.80, 0.10, 0.28, 19.29, 16.48, -1.16, 42.71, 15.88, 27.73,
18.961355924606323,0.89, 0.11, 0.30, 13.24, 5.68, -2.44, 41.94, 15.95, 29.50,
19.07148241996765,1.10, 0.08, 0.36, 7.87, -5.68, -5.92, 42.11, 16.32, 30.24,
19.181965589523315,1.05, -0.06, 0.30, -6.90, -39.37, -5.80, 43.15, 16.03, 28.82,
19.291417837142944,0.95, -0.17, 0.14, -29.11, 4.21, -18.49, 43.41, 17.53, 26.76,
19.401239156723022,0.93, 0.07, 0.27, -16.24, 13.06, -5.49, 42.66, 19.90, 26.38,
19.512193202972412,0.85, -0.01, 0.27, -1.71, 3.60, 4.82, 42.68, 19.82, 28.63,
19.62175941467285,0.83, -0.07, 0.32, 5.07, 1.95, 10.07, 42.96, 19.80, 29.68,
19.731071949005127,1.07, -0.09, 0.40, -2.87, -9.58, 16.54, 43.16, 17.86, 28.87,
19.840436220169067,1.12, 0.10, 0.29, -3.91, -33.94, 15.01, 43.74, 16.43, 27.48,
19.95033097267151,0.85, 0.19, 0.22, 13.31, 10.86, 5.43, 43.57, 15.43, 27.21,
20.059709787368774,1.00, 0.09, 0.29, 21.18, 16.85, 1.22, 42.97, 15.15, 27.89,
20.16876482963562,0.80, 0.02, 0.28, 11.23, 12.82, -6.29, 42.33, 14.20, 29.55,
20.27843403816223,0.89, 0.08, 0.25, -0.79, 3.72, -12.08, 42.48, 15.54, 29.87,
20.388643264770508,1.12, 0.08, 0.30, -10.86, -6.23, -17.15, 42.79, 16.82, 30.29,
20.499033451080322,0.91, -0.14, 0.20, -36.44, -7.08, -17.40, 43.91, 18.60, 27.88,
20.609055757522583,1.07, -0.04, 0.24, -40.83, 9.95, -12.57, 43.40, 20.92, 28.80,
20.71998906135559,0.86, 0.01, 0.27, -23.86, 16.72, 4.46, 42.93, 22.72, 28.05,
20.829317092895508,0.84, 0.02, 0.30, -8.48, 5.07, 5.68, 41.86, 22.51, 29.41,
20.93958067893982,1.04, 0.04, 0.28, -2.38, 8.42, 8.61, 42.46, 22.45, 29.48,
21.050021171569824,1.08, 0.00, 0.26, -11.41, -9.95, -6.77, 42.14, 22.40, 30.70,
21.160099983215332,0.86, 0.15, 0.07, 6.77, -5.86, 0.98, 42.42, 22.25, 28.37,
21.270002365112305,1.01, 0.06, 0.18, 36.93, 4.76, 4.88, 42.52, 21.89, 28.69,
21.379937887191772,0.92, 0.04, 0.28, 36.07, 15.26, 1.04, 42.35, 20.07, 29.21,
21.489874601364136,0.85, 0.04, 0.20, 18.68, 0.00, -14.28, 41.81, 19.48, 31.07,
21.59925651550293,1.12, 0.02, 0.26, -9.03, -17.21, -3.72, 42.05, 19.91, 30.53,
21.70900297164917,0.93, -0.11, 0.20, -23.32, 8.18, 1.83, 43.18, 20.36, 29.16,
21.81945824623108,0.98, -0.01, 0.17, -33.87, 5.92, -10.25, 42.79, 21.79, 29.87,
21.930104970932007,0.95, -0.04, 0.22, -19.71, 18.43, -1.71, 42.11, 22.58, 30.83,
22.039501905441284,0.91, -0.00, 0.23, -10.99, -4.58, 4.03, 41.33, 22.99, 31.16,
22.14823818206787,1.03, 0.06, 0.25, -0.06, -7.20, 7.02, 41.72, 23.91, 31.07,
22.259024143218994,1.06, 0.02, 0.29, 0.37, -10.13, 0.37, 42.03, 22.75, 30.05,
22.368346691131592,0.86, 0.10, 0.11, 16.30, -4.33, 4.64, 42.37, 22.20, 28.52,
22.478262186050415,1.05, 0.06, 0.13, 25.27, 5.25, 0.98, 42.55, 20.43, 29.57,
22.588500261306763,0.89, 0.05, 0.22, 16.05, 9.28, -5.62, 41.69, 20.39, 29.74,
22.698307037353516,0.87, 0.07, 0.24, 7.75, 0.06, -13.61, 41.38, 20.56, 30.05,
22.807831287384033,1.06, 0.06, 0.24, 9.83, -13.85, -13.18, 41.85, 21.53, 30.70,
22.916600942611694,1.13, -0.10, 0.21, -0.67, -19.47, 3.85, 41.97, 21.70, 29.66,
23.026694297790527,0.92, -0.18, 0.12, -18.43, 15.99, -6.65, 42.74, 22.05, 28.37,
23.13664174079895,0.99, -0.03, 0.22, -13.24, 12.51, -0.67, 42.13, 22.97, 29.71,
23.24655556678772,0.92, -0.04, 0.23, 0.24, 6.41, 4.70, 41.14, 22.58, 31.62,
23.355628728866577,0.93, -0.01, 0.22, 10.56, 8.85, 10.38, 41.78, 22.58, 32.21,
23.46606421470642,1.04, -0.09, 0.26, 14.34, -12.02, 12.63, 41.24, 20.78, 32.62,
23.5748553276062,1.13, 0.06, 0.14, 16.91, -27.53, 16.48, 41.77, 19.43, 31.15,
23.683523654937744,0.99, 0.17, 0.10, 26.31, 5.19, 17.27, 41.87, 17.69, 30.66,
23.792733430862427,0.93, 0.05, 0.23, 28.14, 3.60, 0.24, 41.71, 15.31, 30.70,
23.90233874320984,0.85, 0.05, 0.25, 13.73, 7.75, -1.16, 42.02, 14.28, 31.88,
24.01322650909424,0.87, 0.08, 0.22, 6.10, 1.53, -5.55, 41.77, 14.29, 32.25,
24.12279510498047,1.14, 0.13, 0.28, 3.85, -5.86, -5.25, 42.11, 14.20, 32.62,
24.231879949569702,1.09, -0.06, 0.14, -9.03, -31.19, -4.21, 43.12, 14.33, 29.75,
24.341599225997925,1.03, -0.11, 0.18, -20.08, 4.21, -7.20, 43.40, 14.64, 28.65,
24.451749801635742,0.91, 0.03, 0.27, -11.17, 13.67, 2.38, 43.41, 16.05, 29.92,
24.561805725097656,0.88, -0.01, 0.30, -8.12, 1.10, 9.70, 41.93, 15.45, 29.43,
24.67099905014038,1.00, 0.01, 0.28, -9.40, -1.10, 9.70, 42.22, 14.92, 30.75,
24.78023910522461,1.08, 0.03, 0.30, -6.35, -19.84, 6.53, 42.60, 14.79, 28.56,
24.891571760177612,0.87, 0.20, 0.22, 10.86, -15.01, 3.30, 43.26, 14.26, 27.14,
25.00136089324951,0.99, 0.15, 0.28, 20.26, 4.27, 14.59, 43.23, 12.21, 27.77,
25.1110577583313,0.81, 0.13, 0.30, 25.33, 15.75, 3.30, 43.26, 10.77, 27.62,
25.22086524963379,0.90, 0.16, 0.35, 14.59, 12.63, -4.58, 42.32, 10.14, 29.70,
25.33041262626648,0.94, 0.08, 0.34, 11.66, 1.16, -9.28, 41.89, 10.22, 29.42,
25.440063953399658,1.13, 0.10, 0.34, 0.49, -8.12, -5.92, 42.68, 11.52, 30.81,
25.550570964813232,0.83, -0.08, 0.23, -13.12, -23.32, -16.72, 43.38, 12.28, 27.42,
25.66064429283142,1.01, -0.00, 0.23, -28.56, -4.82, -9.46, 43.64, 14.65, 27.39,
25.769426584243774,0.92, -0.02, 0.29, -18.19, 12.45, 2.08, 43.85, 14.50, 27.92,
25.87856888771057,0.83, 0.02, 0.35, -11.78, 1.95, 8.61, 43.03, 14.66, 27.67,
25.988399267196655,1.07, 0.04, 0.39, -3.78, -1.95, 11.72, 43.37, 15.04, 28.54,
26.098495721817017,1.01, 0.06, 0.38, -7.02, -23.38, 3.36, 43.55, 13.82, 26.99,
26.20805597305298,0.89, 0.19, 0.25, 8.36, -2.26, 5.86, 44.23, 13.02, 24.94,
26.31740665435791,1.00, 0.12, 0.29, 21.18, 12.33, 1.16, 44.15, 12.29, 24.96,
26.42813014984131,0.83, 0.07, 0.30, 14.53, 14.71, -6.16, 43.41, 12.05, 26.09,
26.538150548934937,0.86, 0.10, 0.32, 10.07, 11.41, -3.66, 43.15, 12.41, 28.31,
26.649669885635376,1.02, 0.14, 0.37, 14.71, -3.97, -4.33, 43.09, 12.01, 28.23,
26.759580612182617,1.02, -0.01, 0.30, 1.46, -26.00, -7.45, 43.75, 12.27, 26.61,
26.869346141815186,0.90, -0.09, 0.21, -21.48, 3.23, -19.59, 44.41, 13.68, 26.21,
26.979820251464844,0.96, 0.02, 0.29, -16.91, 5.55, -1.10, 44.07, 14.76, 26.32,
27.08927083015442,0.86, 0.02, 0.35, -10.01, 9.52, 0.79, 43.49, 15.59, 27.72,
27.19926166534424,0.86, -0.02, 0.33, -6.16, 10.44, 2.75, 42.72, 14.93, 28.05,
27.30991816520691,1.06, 0.00, 0.33, -9.46, -5.13, 6.23, 42.96, 15.15, 29.43,
27.421075105667114,1.03, 0.06, 0.30, -10.38, -23.62, 4.46, 42.70, 15.37, 29.06,
27.531359910964966,0.94, 0.16, 0.22, 7.26, -0.06, -0.31, 42.86, 14.77, 26.77,
27.640531301498413,0.99, 0.05, 0.25, 21.06, 9.16, -1.46, 43.09, 14.72, 27.37,
27.7500479221344,0.86, 0.02, 0.30, 14.89, 12.51, -4.52, 42.88, 13.84, 28.88,
27.859049797058105,0.83, 0.07, 0.30, 4.21, 0.49, -3.17, 42.91, 13.66, 29.96,
27.969377756118774,1.03, 0.07, 0.37, 4.94, -6.47, -6.41, 42.58, 14.29, 29.02,
28.07880139350891,1.07, -0.01, 0.32, 1.22, -16.85, -2.56, 43.26, 14.33, 29.55,
28.189846515655518,0.83, -0.16, 0.19, -25.21, 2.62, -16.05, 43.07, 15.56, 27.78,
28.298805713653564,0.99, 0.01, 0.27, -29.24, 16.85, -4.21, 43.08, 16.96, 28.37,
28.408864736557007,0.89, -0.01, 0.30, -14.65, 18.43, -0.55, 41.58, 17.71, 29.44,
28.51804208755493,0.85, -0.03, 0.31, -10.25, 10.80, 5.98, 41.67, 17.70, 30.26,
28.626343727111816,1.11, 0.03, 0.33, -6.90, 3.54, 11.35, 41.61, 18.48, 30.81,
28.736027479171753,1.16, 0.07, 0.30, -3.85, -14.53, 6.10, 41.48, 17.70, 31.67,
28.84553623199463,0.78, 0.18, 0.13, 16.54, -12.45, 1.65, 42.85, 16.32, 28.48,
28.955514907836914,1.00, 0.02, 0.20, 28.14, 6.47, -0.79, 42.37, 15.37, 29.99,
29.064197063446045,0.89, 0.05, 0.27, 13.31, 17.82, -5.13, 41.48, 15.17, 30.38,
29.175657272338867,0.88, 0.08, 0.28, 3.91, 7.39, -6.10, 41.22, 15.12, 31.14,
29.28446316719055,1.10, 0.04, 0.27, 4.03, -7.20, -8.85, 41.47, 16.50, 31.12,
29.39458203315735,1.14, -0.04, 0.25, 0.73, -18.68, 4.64, 41.66, 16.20, 31.76,
29.50423550605774,0.88, -0.12, 0.13, -20.08, 3.85, -6.96, 42.60, 16.13, 29.68,
29.61520791053772,1.00, 0.03, 0.21, -21.79, 4.64, -4.94, 42.85, 17.88, 30.75,
29.72556972503662,0.85, 0.01, 0.23, -15.63, 13.12, 3.17, 42.14, 17.66, 31.14,
29.835341930389404,0.86, 0.00, 0.28, -6.53, -1.10, 6.35, 43.01, 17.92, 30.44,
29.945326566696167,1.03, -0.08, 0.30, -1.28, -9.64, 10.19, 42.30, 17.16, 30.38,
30.056252241134644,1.06, 0.14, 0.23, -4.46, -34.79, 5.25, 43.82, 17.24, 28.88,
30.166770219802856,0.92, 0.15, 0.20, 11.96, 10.44, 7.57, 43.55, 16.50, 27.87,
30.275383710861206,0.93, 0.06, 0.28, 15.38, 15.99, -1.53, 43.18, 15.86, 29.54,
30.38444232940674,0.86, 0.04, 0.25, 3.36, 11.47, -5.07, 42.54, 16.03, 29.71,
30.49445152282715,0.95, 0.11, 0.23, -0.12, -1.77, -5.43, 42.26, 15.97, 30.22,
30.603615522384644,1.12, 0.14, 0.31, 2.32, -7.69, 0.73, 42.97, 16.39, 29.74,
30.713720560073853,0.92, -0.03, 0.21, -6.23, -18.92, -4.15, 43.33, 16.13, 27.72,
30.823445320129395,1.01, -0.07, 0.21, -16.05, 11.84, -10.50, 43.91, 17.40, 28.26,
30.932631731033325,0.91, 0.06, 0.24, -3.30, 14.89, 8.54, 43.13, 18.18, 28.82,
31.041337251663208,0.89, 0.03, 0.28, 7.14, 9.83, 7.75, 42.57, 17.33, 30.63,
31.151020765304565,0.98, 0.01, 0.26, 6.23, 0.00, 4.33, 42.49, 17.07, 31.63,
31.260926008224487,1.17, -0.06, 0.31, 4.94, -14.59, 0.61, 42.44, 15.91, 31.01,
31.37126851081848,0.92, 0.10, 0.25, 7.51, -17.70, -1.46, 43.46, 15.82, 28.36,
31.480327367782593,0.95, 0.12, 0.20, 23.01, 10.13, 5.68, 43.18, 15.33, 29.85,
31.589354515075684,0.93, 0.03, 0.29, 21.00, 17.58, 1.71, 43.14, 13.77, 28.67,
31.69976830482483,0.89, 0.06, 0.29, 6.23, 8.61, -5.13, 41.91, 13.88, 30.30,
31.809881448745728,0.96, 0.04, 0.28, 5.00, -6.96, -7.75, 41.98, 14.14, 29.97,
31.919795751571655,1.17, 0.07, 0.35, 2.32, -7.08, -4.03, 42.63, 15.04, 30.31,
32.031002044677734,0.83, -0.10, 0.18, -13.12, -17.33, -13.12, 42.87, 15.37, 29.19,
32.13998889923096,1.04, 0.00, 0.23, -26.00, 0.18, -5.62, 44.09, 16.88, 28.56,
32.25056076049805,0.86, -0.01, 0.29, -11.17, 19.71, 7.26, 43.13, 17.55, 28.08,
32.360679149627686,0.89, -0.02, 0.30, -7.87, 9.34, 8.36, 42.93, 16.47, 31.10,
32.47006130218506,1.07, 0.01, 0.32, -9.89, 0.61, 9.83, 42.52, 16.37, 30.11,
32.580135345458984,1.07, 0.03, 0.33, -11.78, -16.72, 3.48, 42.90, 16.00, 30.37,
32.68990993499756,0.86, 0.13, 0.17, 3.42, -7.39, 6.59, 43.74, 15.20, 27.31,
32.79852604866028,1.05, 0.10, 0.25, 21.00, 3.30, 8.12, 43.43, 14.73, 28.60,
32.90786409378052,0.84, 0.10, 0.32, 15.81, 13.37, -5.00, 43.10, 13.75, 29.31,
33.017823219299316,0.85, 0.07, 0.29, 10.07, 7.75, -9.40, 42.18, 13.85, 29.64,
33.12804698944092,1.11, 0.03, 0.30, 5.43, -4.03, -13.00, 42.42, 15.47, 31.09,
33.237144470214844,1.16, 0.01, 0.30, 2.14, -16.78, -11.66, 43.04, 16.71, 29.55,
33.34846329689026,0.84, -0.10, 0.18, -13.00, -1.04, -10.56, 43.46, 17.57, 28.66,
33.4598708152771,1.06, -0.04, 0.25, -22.22, 3.17, -3.42, 43.08, 18.51, 28.30,
33.569690227508545,0.80, -0.04, 0.29, -7.87, 13.00, 7.39, 42.61, 18.93, 28.39,
33.679383993148804,0.89, -0.05, 0.33, -10.99, 7.45, 11.05, 42.29, 18.44, 29.81,
33.78996658325195,1.08, 0.02, 0.36, -12.15, -5.80, 11.72, 42.41, 18.24, 31.30,
33.898943185806274,1.22, 0.09, 0.28, -8.61, -28.56, 2.56, 43.05, 17.44, 29.86,
34.00863862037659,0.77, 0.16, 0.16, 12.39, -11.47, 8.42, 43.66, 16.63, 27.53,
34.11986184120178,1.03, -0.02, 0.28, 21.42, 5.62, 0.61, 43.70, 15.08, 26.42,
34.22909474372864,0.81, 0.09, 0.34, 8.24, 20.08, -4.52, 42.81, 15.33, 27.99,
34.339499711990356,0.85, 0.13, 0.32, 7.51, 7.87, -9.34, 42.82, 15.69, 28.76,
34.45079159736633,1.03, 0.09, 0.35, 16.11, 0.98, -14.10, 42.16, 16.43, 30.77,
34.56029796600342,1.12, -0.10, 0.30, 5.13, -14.40, -7.51, 42.65, 17.38, 30.31,
34.67161321640015,0.92, -0.15, 0.14, -22.28, 4.33, -20.81, 42.50, 18.40, 29.25,
34.78274607658386,1.00, 0.00, 0.23, -22.03, 1.59, 1.10, 43.15, 20.68, 29.31,
34.89211654663086,0.84, -0.08, 0.26, -3.66, 5.13, 11.66, 42.38, 19.64, 29.72,
35.002830028533936,0.83, -0.05, 0.30, -5.86, -1.28, 9.83, 42.35, 18.69, 29.96,
35.11216688156128,1.06, 0.01, 0.38, -12.08, -0.06, 15.99, 42.33, 18.42, 30.62,
35.221254110336304,1.19, 0.05, 0.30, -8.18, -22.28, 5.80, 42.57, 17.94, 29.48,
35.33124923706055,0.90, 0.19, 0.14, 15.20, 8.73, 14.59, 43.42, 15.98, 29.06,
35.441352128982544,0.91, 0.05, 0.23, 27.53, 6.65, -0.98, 42.97, 15.06, 29.82,
35.55233931541443,0.89, 0.11, 0.28, 16.11, 12.82, 0.12, 42.47, 14.11, 29.41,
35.662434816360474,0.87, 0.04, 0.30, 4.94, 5.74, -10.19, 41.99, 13.34, 31.04,
35.77178478240967,1.10, 0.09, 0.31, 3.66, -4.15, -12.08, 41.78, 14.53, 31.56,
35.88080906867981,1.08, -0.07, 0.23, -12.15, -19.41, -0.67, 42.41, 15.78, 31.63,
35.99287438392639,0.92, -0.09, 0.14, -31.31, -0.67, -16.66, 43.10, 16.94, 29.36,
36.10284948348999,0.99, 0.05, 0.26, -22.16, 10.74, -4.39, 42.57, 19.20, 30.03,
36.211976766586304,0.86, -0.01, 0.28, -7.69, 17.52, 7.63, 42.05, 19.13, 30.32,
36.32223916053772,0.86, -0.02, 0.27, 3.54, 6.16, 9.22, 41.49, 18.68, 30.14,
36.430989027023315,1.06, -0.01, 0.30, 14.53, -8.67, 20.45, 41.65, 17.71, 31.05,
36.54204702377319,1.06, 0.09, 0.23, 12.45, -30.27, 6.35, 42.63, 14.87, 31.53,
36.65165901184082,0.81, 0.19, 0.21, 18.80, 5.68, -3.36, 42.69, 14.66, 28.72,
36.76063418388367,0.94, 0.16, 0.28, 30.27, 12.51, -1.22, 42.41, 13.70, 28.99,
36.87070870399475,0.88, 0.03, 0.27, 28.26, 12.27, -7.14, 42.55, 13.33, 31.23,
36.97906255722046,0.88, 0.02, 0.26, 6.84, -2.56, -8.97, 42.33, 13.29, 29.61,
37.089924812316895,1.16, 0.12, 0.33, -1.34, -5.80, -12.63, 42.20, 14.16, 31.69,
37.19818615913391,0.87, -0.20, 0.24, -20.08, -16.60, -7.87, 42.74, 14.70, 28.58,
37.307398557662964,1.04, -0.08, 0.20, -47.18, 7.45, -16.48, 42.98, 17.49, 29.31,
37.41789436340332,0.86, -0.01, 0.23, -32.10, 19.78, -1.28, 42.08, 19.40, 29.69,
37.5261869430542,0.89, -0.00, 0.27, -15.20, 6.10, 4.76, 42.13, 19.73, 30.55,
37.63596796989441,1.06, 0.00, 0.28, -2.01, -2.50, 11.23, 41.80, 19.52, 30.96,
37.745508670806885,1.11, -0.02, 0.31, -4.27, -17.88, 2.75, 41.82, 18.92, 31.80,
37.85567355155945,0.83, 0.13, 0.17, 0.79, -10.50, 2.75, 42.54, 18.75, 29.59,
37.96405243873596,1.06, 0.05, 0.22, 24.84, 8.18, 3.97, 42.15, 17.72, 28.33,
38.073163986206055,0.89, 0.02, 0.27, 25.15, 17.27, 1.53, 42.00, 16.88, 30.90,
38.182087659835815,0.91, 0.07, 0.29, 9.52, 5.86, -9.64, 40.95, 16.77, 31.01,
38.29245090484619,1.09, 0.05, 0.28, 1.16, -7.02, -11.54, 41.77, 17.37, 31.23,
38.40251183509827,1.08, -0.13, 0.24, -11.90, -18.74, -3.11, 41.89, 17.71, 31.02,
38.51246500015259,0.96, -0.15, 0.15, -22.95, 5.62, -7.81, 42.24, 18.62, 30.38,
38.62201237678528,0.92, 0.05, 0.25, -11.96, 1.65, 4.70, 42.03, 20.19, 28.26,
38.73284387588501,0.91, -0.03, 0.29, 9.95, 8.54, 7.93, 41.81, 19.38, 30.41,
38.842790365219116,0.87, -0.05, 0.29, 5.80, -0.85, 8.73, 42.05, 18.53, 30.31,
38.95117163658142,1.17, -0.10, 0.32, 7.32, -5.19, 13.55, 42.60, 17.31, 29.96,
39.06131625175476,1.04, 0.16, 0.24, 4.21, -20.26, 14.28, 42.75, 16.33, 29.10,
39.1706109046936,0.96, 0.10, 0.23, 25.63, 4.88, 14.16, 43.13, 15.12, 28.33,
39.27982211112976,0.90, 0.05, 0.29, 28.56, 10.44, 0.73, 42.86, 13.16, 27.48,
39.388906478881836,0.84, 0.03, 0.32, 9.70, 2.20, -5.31, 42.47, 12.66, 29.64,
39.49772071838379,0.88, 0.08, 0.33, -1.95, -2.62, -10.01, 42.49, 13.34, 28.82,
39.60824704170227,1.17, 0.13, 0.37, -6.53, -7.63, -3.78, 42.92, 14.09, 28.38,
39.71694874763489,0.85, -0.10, 0.25, -10.86, -22.58, -14.89, 43.70, 14.92, 27.80,
39.827733755111694,1.09, -0.06, 0.26, -25.02, 9.64, -19.59, 43.02, 16.82, 26.92,
39.9375114440918,0.94, -0.03, 0.32, -5.07, 8.48, 2.87, 43.09, 17.93, 27.99,
40.04845356941223,0.81, -0.03, 0.36, 4.64, 5.49, 6.53, 42.37, 17.57, 28.66,
40.1585636138916,0.95, -0.04, 0.36, 10.80, 11.47, 11.23, 41.87, 16.71, 30.37,
40.26886701583862,1.13, -0.16, 0.36, -0.67, -4.88, 13.24, 42.79, 14.58, 30.51,
40.378257751464844,0.93, 0.14, 0.23, 1.10, -16.17, 8.54, 43.20, 14.45, 28.54,
40.48755741119385,1.03, 0.12, 0.25, 7.75, 10.01, 17.58, 42.60, 13.16, 27.27,
40.59760332107544,0.89, 0.13, 0.30, 10.50, 15.56, 0.98, 42.71, 11.67, 28.23,
40.7072331905365,0.80, 0.10, 0.31, 7.02, 4.33, -7.08, 42.15, 11.13, 28.43,
40.817285776138306,1.00, 0.10, 0.35, 3.66, -1.71, -12.21, 42.21, 12.46, 31.34,
40.92846941947937,1.15, 0.04, 0.36, -4.88, -9.58, -7.87, 43.03, 13.37, 28.65,
41.03846859931946,0.83, -0.06, 0.24, -17.58, -7.63, -23.19, 43.47, 14.69, 27.10,
41.1483473777771,1.11, -0.06, 0.24, -24.60, 13.24, -18.37, 43.54, 17.41, 29.03,
41.258132219314575,0.90, 0.01, 0.33, -2.26, 19.96, 6.71, 42.94, 18.18, 28.94,
41.368621826171875,0.79, -0.08, 0.33, 5.13, 4.03, 9.83, 42.86, 17.46, 30.70,
41.47892451286316,0.97, -0.07, 0.32, -2.56, 5.19, 10.50, 41.81, 16.59, 30.65,
41.58880352973938,1.16, -0.06, 0.34, -13.18, -4.46, 9.58, 42.49, 15.41, 29.92,
41.699103593826294,0.84, 0.13, 0.20, -3.42, -29.60, 1.46, 42.85, 15.25, 26.48,
41.80958032608032,1.04, 0.10, 0.27, 10.56, 12.63, 9.58, 42.70, 14.77, 27.73,
41.920920848846436,0.88, 0.11, 0.31, 15.99, 15.44, 7.39, 42.99, 14.04, 28.23,
42.03032827377319,0.81, 0.09, 0.31, 3.91, 7.08, -4.15, 42.71, 12.48, 29.31,
42.139127016067505,1.06, 0.09, 0.38, 0.49, -1.16, -11.17, 42.00, 14.14, 30.10,
42.24945878982544,1.15, 0.02, 0.34, 3.97, -19.47, -3.42, 42.43, 14.29, 29.10,
42.3606915473938,0.82, -0.12, 0.20, -11.66, -8.67, -16.11, 42.91, 15.53, 26.82,
42.470457792282104,1.02, 0.03, 0.27, -22.28, 9.09, -14.28, 42.94, 17.63, 26.45,
42.580533504486084,0.86, 0.00, 0.31, -2.75, 15.08, 8.24, 43.36, 17.10, 28.41,
42.68986511230469,0.88, -0.04, 0.33, -3.91, 8.30, 10.01, 42.35, 16.75, 29.08,
42.79905104637146,1.11, 0.06, 0.32, -1.40, 2.81, 17.21, 42.07, 16.39, 28.56,
42.909491300582886,1.08, 0.08, 0.29, -1.83, -25.76, 7.75, 42.26, 14.09, 28.37,
43.019609451293945,0.82, 0.19, 0.19, 9.28, -0.31, 6.53, 42.88, 13.92, 27.47,
43.129589557647705,1.03, 0.10, 0.28, 23.25, 12.33, 0.85, 42.18, 12.79, 27.76,
43.239505767822266,0.82, 0.05, 0.30, 20.81, 14.53, -4.52, 41.69, 12.70, 29.99,
43.35011577606201,0.86, 0.09, 0.26, 8.48, 2.01, -9.16, 41.89, 12.98, 30.98,
43.46020030975342,1.11, 0.14, 0.35, 8.91, -8.12, -9.46, 42.16, 13.32, 30.19,
43.57144498825073,0.99, -0.06, 0.25, -1.77, -30.52, -1.22, 43.14, 12.70, 29.99,
43.6822555065155,0.89, -0.13, 0.19, -21.18, 9.16, -9.52, 43.85, 13.39, 27.05,
43.79388737678528,0.99, 0.03, 0.32, -19.29, 15.63, -2.62, 43.36, 14.15, 28.02,
43.904149293899536,0.78, -0.01, 0.32, -7.63, 0.67, 7.93, 43.04, 15.27, 29.35,
44.01447916030884,0.95, -0.04, 0.29, -8.36, 5.00, 11.29, 42.93, 14.77, 29.58,
44.12437057495117,1.06, -0.00, 0.33, -4.39, -9.16, 11.23, 42.37, 13.62, 28.50,
44.23551630973816,0.91, 0.22, 0.20, 9.70, -6.71, 6.84, 42.36, 12.00, 28.23,
44.3456654548645,1.00, 0.10, 0.26, 22.64, 8.61, 7.45, 42.44, 11.28, 28.53,
44.45491075515747,0.85, 0.14, 0.30, 21.91, 16.17, -5.49, 42.15, 10.10, 29.49,
44.56631541252136,0.90, 0.08, 0.32, 3.85, 3.66, -4.88, 42.11, 10.52, 30.58,
44.67687964439392,1.05, 0.06, 0.34, -6.35, -7.08, -13.61, 41.82, 11.02, 30.13,
44.78654980659485,1.06, 0.04, 0.33, -15.50, -8.61, -13.49, 42.26, 12.73, 28.48,
44.897719383239746,0.86, -0.07, 0.21, -28.20, 2.93, -19.23, 43.40, 14.25, 27.47,
45.0072021484375,1.09, -0.00, 0.27, -24.17, 5.55, -12.45, 42.29, 16.97, 28.05,
45.11682105064392,0.90, -0.00, 0.29, -8.00, 15.32, 1.77, 42.66, 17.32, 28.81,
45.22528290748596,0.82, -0.05, 0.33, -0.79, 1.59, 7.14, 41.59, 17.13, 28.77,
45.33559560775757,1.12, -0.01, 0.40, -3.17, 0.43, 6.35, 41.89, 16.24, 29.98,
45.44570803642273,1.03, 0.01, 0.36, -0.79, -19.59, -2.56, 42.35, 16.36, 30.33,
45.554518938064575,0.85, 0.17, 0.21, 11.35, -4.70, 2.14, 43.02, 16.27, 27.94,
45.66335964202881,1.02, 0.02, 0.26, 31.56, 11.90, 7.93, 42.92, 14.89, 29.03,
45.773624658584595,0.91, 0.02, 0.25, 19.96, 19.29, 1.59, 41.67, 14.06, 29.27,
45.88315272331238,0.89, 0.05, 0.28, 5.13, 0.18, -4.94, 41.27, 12.87, 31.20,
45.99371337890625,1.08, 0.04, 0.33, -0.92, -13.00, -11.29, 41.81, 14.36, 30.68,
46.10374927520752,1.11, -0.06, 0.34, 5.74, -27.59, 0.92, 42.21, 14.20, 30.30,
46.213316202163696,0.81, -0.14, 0.19, -16.60, -2.01, -8.48, 43.37, 14.72, 27.20,
46.32448363304138,1.00, 0.06, 0.29, -21.55, 14.34, -0.18, 42.79, 15.88, 27.69,
46.43486404418945,0.84, -0.01, 0.32, -0.43, 17.09, 9.52, 42.33, 15.05, 29.47,
46.54383707046509,0.90, -0.05, 0.32, -7.69, 5.98, 3.85, 41.65, 14.87, 30.02,
46.65431618690491,1.07, -0.01, 0.34, -10.56, -3.11, 8.67, 42.19, 15.45, 30.44,
46.76587152481079,1.15, 0.07, 0.24, -10.68, -22.34, 3.48, 42.40, 14.67, 30.02,
46.87586712837219,0.84, 0.19, 0.12, 16.30, 11.05, 10.56, 42.94, 14.58, 28.22,
46.985187292099,0.96, 0.00, 0.24, 20.02, 6.90, -0.73, 42.36, 12.10, 29.47,
47.094975233078,0.84, 0.10, 0.26, 7.69, 14.10, -6.35, 41.91, 12.12, 30.24,
47.204941749572754,0.87, 0.07, 0.26, 5.00, 4.76, -8.12, 41.69, 12.61, 31.63,
47.3156259059906,1.11, 0.11, 0.28, -0.92, -6.84, -14.83, 42.65, 13.72, 31.09,
47.42557215690613,1.08, -0.09, 0.22, -11.84, -22.03, -9.28, 42.88, 14.43, 30.60,
47.5353901386261,0.95, -0.14, 0.16, -19.47, 0.92, -6.96, 42.90, 15.45, 29.03,
47.645808935165405,0.95, 0.07, 0.27, -11.96, 10.25, -0.37, 42.08, 17.26, 30.52,
47.754422187805176,0.84, -0.03, 0.29, 2.93, 5.74, 7.14, 42.61, 17.04, 30.09,
47.863829135894775,0.86, -0.06, 0.30, -2.56, -0.43, 6.29, 42.03, 16.03, 30.02,
47.97386884689331,1.13, -0.11, 0.33, -4.09, -7.69, 10.19, 42.55, 15.75, 29.98,
48.08389115333557,1.01, 0.13, 0.22, 0.79, -24.11, 4.39, 42.63, 15.44, 29.65,
48.19195342063904,1.00, 0.14, 0.21, 17.03, 11.60, 9.52, 42.86, 14.71, 27.36,
48.30339431762695,0.88, 0.07, 0.28, 16.66, 11.96, -2.44, 42.16, 13.15, 29.59,
48.412641525268555,0.82, 0.02, 0.29, 8.54, 5.68, -4.39, 41.86, 13.45, 28.82,
48.522494316101074,0.90, 0.03, 0.30, 0.24, -2.56, -5.37, 41.71, 13.59, 31.40,
48.63221096992493,1.24, 0.08, 0.35, -2.08, -6.41, -3.78, 41.85, 14.36, 29.76,
48.74223279953003,0.95, -0.08, 0.21, -16.54, -28.75, -15.32, 42.82, 14.86, 28.02,
48.85345816612244,1.04, -0.00, 0.27, -20.75, -1.40, -8.85, 43.55, 15.84, 25.70,
48.96355128288269,0.79, 0.03, 0.34, -3.97, 16.05, 5.37, 42.91, 16.36, 26.50,
49.07369375228882,0.87, -0.01, 0.37, -6.35, 11.66, 8.85, 42.50, 15.49, 26.45,
49.182345151901245,0.94, -0.03, 0.35, -5.19, 4.33, 7.26, 42.40, 15.67, 29.77,
49.29234766960144,1.10, -0.05, 0.36, -7.08, -12.82, 1.95, 42.64, 15.94, 28.15,
49.40163278579712,0.82, 0.14, 0.24, 1.89, -18.25, 0.31, 43.51, 15.21, 26.53,
49.51147675514221,1.05, 0.09, 0.27, 16.36, 7.87, 7.57, 43.07, 14.92, 25.98,
49.62196755409241,0.87, 0.05, 0.33, 13.37, 15.01, -1.77, 42.61, 14.38, 26.76,
49.732717752456665,0.87, 0.05, 0.33, 13.79, 7.32, -5.43, 42.07, 13.94, 29.74,
49.842835903167725,1.08, 0.02, 0.38, 11.11, -8.18, -7.20, 42.60, 13.95, 29.11,
49.9528374671936,1.06, -0.03, 0.39, 9.77, -12.82, 1.77, 43.08, 14.54, 27.33,
50.063852071762085,0.85, -0.07, 0.24, -12.27, -7.26, -5.13, 44.02, 13.55, 24.85,
50.17452001571655,0.99, -0.04, 0.26, -26.06, 16.30, -6.41, 44.03, 14.61, 26.60,
50.28522992134094,0.85, 0.04, 0.27, -23.62, 14.34, -0.06, 43.42, 15.91, 27.72,
50.394124269485474,0.89, 0.01, 0.33, -10.93, 8.36, 8.30, 42.79, 15.76, 28.30,
50.504364013671875,1.00, 0.04, 0.35, -5.43, 2.81, 6.65, 42.61, 15.77, 29.31,
50.61437201499939,1.10, 0.02, 0.35, 1.89, -11.84, 0.92, 42.31, 15.33, 30.51,
50.72456741333008,0.93, 0.18, 0.24, 19.17, -13.37, 4.33, 43.16, 14.48, 27.81,
50.83457803726196,1.01, 0.05, 0.21, 28.02, 10.99, 1.71, 42.30, 13.39, 27.20,
50.94379758834839,0.90, 0.03, 0.29, 13.37, 15.63, -3.17, 42.26, 12.68, 28.65,
51.05341649055481,0.88, 0.04, 0.32, 0.06, 3.36, -5.49, 41.99, 13.05, 30.85,
51.163135290145874,1.02, -0.01, 0.35, -1.65, -4.58, -9.46, 42.08, 13.85, 29.52,
51.274493932724,1.10, 0.01, 0.38, -7.32, -11.23, -0.18, 41.60, 14.99, 29.37,
51.38391160964966,0.92, -0.04, 0.20, -12.82, -23.19, -11.78, 42.69, 15.05, 26.60,
51.49440574645996,0.98, -0.01, 0.32, -20.75, 10.44, -12.63, 43.35, 16.48, 26.93,
51.605090379714966,0.86, -0.00, 0.32, -16.78, 20.02, -0.73, 42.44, 16.92, 26.90,
51.71468949317932,0.87, 0.00, 0.35, -6.35, 10.50, 8.36, 42.02, 17.03, 29.08,
51.82464027404785,0.99, 0.00, 0.33, -0.12, -0.12, 12.15, 42.08, 16.35, 30.29,
51.93368744850159,1.11, -0.02, 0.38, 2.20, -7.75, 10.19, 42.19, 15.16, 29.38,
52.0450713634491,0.91, 0.13, 0.25, 11.17, -7.02, 5.62, 42.93, 14.31, 28.43,
52.1551194190979,1.02, 0.15, 0.23, 19.29, 14.65, 7.39, 42.54, 13.61, 28.47,
52.26514148712158,0.87, 0.07, 0.27, 12.21, 12.57, 3.36, 42.26, 12.24, 29.42,
52.37574076652527,0.86, 0.08, 0.30, 4.33, 3.54, -4.33, 41.55, 12.12, 29.87,
52.48480272293091,1.00, 0.07, 0.34, 0.00, 2.93, -7.93, 41.41, 12.35, 31.18,
52.59471893310547,1.13, 0.11, 0.37, -0.85, 0.00, -11.29, 41.33, 13.84, 29.36,
52.704386472702026,0.95, -0.03, 0.26, -5.25, -18.19, -5.74, 42.60, 14.12, 29.02,
52.814125776290894,0.98, -0.05, 0.21, -21.24, 0.18, -7.45, 42.52, 14.88, 27.60,
52.924760818481445,0.82, -0.03, 0.33, -18.92, 12.70, -1.28, 42.58, 15.92, 27.72,
53.03429365158081,0.87, 0.00, 0.35, -15.32, -2.20, 5.86, 42.75, 16.63, 28.42,
53.143067359924316,1.02, 0.03, 0.32, -6.29, -1.04, 12.63, 42.43, 15.76, 30.03,
53.253499031066895,1.08, 0.10, 0.30, 3.60, -26.92, 6.90, 42.68, 14.81, 27.60,
53.36457180976868,0.93, 0.18, 0.21, 15.81, 3.91, -1.22, 42.66, 14.66, 26.89,
53.47317671775818,0.96, 0.05, 0.31, 20.94, 12.45, 0.67, 42.74, 13.93, 27.50,
53.58311367034912,0.80, 0.08, 0.30, 9.58, 14.16, -2.14, 42.32, 13.37, 27.81,
53.69197130203247,0.86, 0.12, 0.27, 0.73, 5.74, -3.91, 41.64, 13.78, 30.02,
53.80235433578491,1.03, 0.12, 0.37, 18.13, -12.15, -9.22, 41.66, 14.50, 29.55,
53.91265058517456,1.00, 0.00, 0.28, 10.74, -23.93, -1.83, 42.55, 13.93, 28.80,
54.02307081222534,0.86, -0.15, 0.19, -7.81, 2.69, -6.71, 42.96, 13.95, 27.09,
54.134172439575195,0.95, 0.02, 0.30, -10.68, 11.11, -4.39, 42.63, 14.92, 28.52,
54.244794845581055,0.88, -0.06, 0.31, -1.89, 12.27, 4.64, 42.13, 14.34, 29.25,
54.354939699172974,0.87, -0.03, 0.30, -6.77, 2.08, 5.25, 41.98, 14.70, 30.10,
54.46573781967163,1.03, -0.00, 0.38, -5.13, -5.98, 7.81, 42.38, 14.03, 30.77,
54.57488226890564,1.18, 0.03, 0.33, -12.27, -27.77, -4.70, 42.87, 13.98, 30.08,
54.68533229827881,0.90, 0.09, 0.18, 8.18, 4.03, 3.36, 43.48, 14.61, 27.97,
54.79578924179077,0.95, 0.01, 0.26, 11.60, 4.76, 4.39, 43.20, 13.49, 28.11,
54.90514612197876,0.84, 0.05, 0.33, 4.27, 10.80, 0.43, 42.98, 12.96, 27.86,
55.01538062095642,0.81, 0.11, 0.37, 1.59, 4.21, -3.36, 42.16, 13.43, 28.81,
55.12503528594971,1.04, 0.05, 0.40, -1.04, -6.16, -6.90, 42.10, 12.89, 29.43,
55.23574423789978,1.17, 0.01, 0.32, -2.20, -34.18, -4.64, 43.27, 13.77, 29.85,
55.34554147720337,0.90, -0.13, 0.17, -17.58, 0.43, -17.88, 43.62, 15.23, 27.32,
55.45512318611145,0.94, 0.05, 0.30, -9.89, 7.39, -0.06, 43.31, 16.48, 27.71,
55.56559419631958,0.83, -0.04, 0.36, 9.52, -0.24, 7.81, 43.05, 15.36, 27.55,
55.6755428314209,0.81, -0.04, 0.37, 2.75, 7.69, 11.96, 43.24, 15.08, 27.87,
55.78568243980408,1.14, 0.00, 0.39, -1.59, -8.61, 13.67, 42.43, 13.96, 28.38,
55.89493727684021,1.16, 0.16, 0.32, -12.21, -18.86, 6.04, 43.24, 12.61, 27.04,
56.00560712814331,0.89, 0.13, 0.22, 14.95, 18.43, -1.95, 42.53, 12.79, 27.73,
56.116783142089844,0.89, 0.05, 0.30, 23.50, 10.19, 2.56, 41.78, 12.05, 28.03,
56.22680115699768,0.81, 0.05, 0.34, 15.44, 6.04, -4.33, 42.65, 11.08, 28.93,
56.33725023269653,0.98, 0.03, 0.37, 0.67, -1.28, -4.88, 42.32, 11.77, 28.00,
56.446362018585205,1.17, 0.04, 0.37, -4.46, -18.07, -0.06, 42.60, 11.71, 28.76,
56.55743050575256,0.94, -0.14, 0.22, -17.09, -5.98, -15.50, 43.43, 13.17, 26.92,
56.66934585571289,0.86, 0.03, 0.32, -32.71, 12.70, -6.77, 43.47, 14.48, 27.11,
56.77840566635132,0.87, -0.00, 0.37, -28.50, 22.95, 3.54, 42.54, 14.78, 28.67,
56.8878288269043,0.89, -0.01, 0.31, -12.88, 10.25, 9.22, 42.03, 15.08, 29.60,
56.99833917617798,1.15, -0.00, 0.31, 2.56, -17.82, 8.18, 41.49, 14.48, 30.24,
57.108577251434326,0.94, 0.23, 0.22, 18.07, -27.89, -2.99, 42.11, 14.05, 27.61,
57.218685150146484,0.95, 0.08, 0.25, 31.49, 18.55, 3.85, 42.29, 12.98, 29.47,
57.327086448669434,0.83, 0.06, 0.29, 19.41, 18.92, -4.88, 41.41, 12.08, 29.71,
57.436423778533936,0.83, 0.10, 0.34, 9.83, 9.77, -2.08, 41.63, 12.63, 29.36,
57.545761823654175,1.11, 0.04, 0.37, 8.54, 5.86, -8.54, 40.98, 12.04, 30.13,
57.65530514717102,1.23, -0.02, 0.30, -1.83, -12.21, -3.54, 41.28, 12.90, 31.51,
57.76606893539429,0.91, -0.10, 0.18, -23.44, -3.48, -17.64, 41.39, 13.11, 29.08,
57.875813722610474,0.91, 0.04, 0.26, -22.46, 6.53, -3.60, 42.07, 14.98, 29.30,
57.984885931015015,0.82, -0.06, 0.31, -13.61, 17.27, 10.19, 40.82, 15.41, 30.41,
58.09516358375549,0.88, -0.04, 0.34, -19.90, 0.85, 4.88, 40.80, 15.71, 30.43,
58.2052845954895,1.13, -0.02, 0.34, -8.85, -13.73, 9.46, 41.59, 15.66, 29.57,
58.315083026885986,0.99, 0.16, 0.23, 0.92, -32.53, -1.16, 42.57, 15.64, 28.25,
58.426029205322266,0.96, 0.09, 0.22, 25.82, 10.07, 6.77, 42.92, 14.62, 27.11,
58.53650999069214,0.83, 0.01, 0.29, 26.00, 16.97, 1.71, 42.53, 13.71, 26.65,
58.64592623710632,0.88, 0.02, 0.33, 8.67, 7.51, -0.12, 41.78, 12.29, 28.70,
58.755431175231934,1.04, 0.01, 0.37, 4.03, -10.99, -11.35, 42.15, 13.18, 27.88,
58.86639976501465,1.15, -0.10, 0.26, -5.25, -26.92, -8.97, 42.85, 14.22, 27.56,
58.97667193412781,0.94, -0.10, 0.23, -25.70, 6.16, -6.53, 43.59, 15.65, 26.89,
59.08620357513428,0.86, 0.08, 0.29, -16.72, 19.84, 0.67, 43.12, 16.52, 26.65,
59.196248054504395,0.83, 0.00, 0.32, -2.01, 13.85, 10.93, 42.79, 16.25, 28.03,
59.30671215057373,0.92, -0.04, 0.36, -2.32, -0.55, 7.45, 42.09, 15.72, 30.10,
59.416786432266235,1.18, -0.05, 0.40, 6.16, -18.13, 7.02, 42.11, 14.70, 29.52,
59.526867628097534,0.95, 0.18, 0.21, 13.37, -18.31, 4.46, 43.42, 13.88, 26.26,
59.63712501525879,0.98, 0.08, 0.24, 19.04, 14.47, 8.12, 42.47, 12.43, 26.73,
59.747490882873535,0.78, 0.06, 0.30, 8.24, 17.03, -3.60, 42.42, 12.35, 28.09,
59.85634255409241,0.83, 0.09, 0.35, 0.49, 7.32, -7.32, 41.93, 12.43, 28.32,
59.96671104431152,1.13, 0.04, 0.40, -3.60, -5.55, -10.38, 41.91, 13.88, 30.47,
60.0759117603302,1.19, -0.08, 0.30, -9.70, -19.10, -5.62, 42.33, 14.66, 27.95,
60.18651628494263,0.84, -0.09, 0.20, -25.27, -2.50, -14.28, 42.75, 16.36, 26.16,
60.297276973724365,0.86, 0.06, 0.26, -15.01, 13.12, -0.55, 43.02, 17.15, 27.76,
60.40756678581238,0.87, -0.02, 0.34, -1.10, 10.25, 11.41, 42.20, 16.50, 28.96,
60.51767921447754,0.86, -0.02, 0.34, -5.07, 1.59, 8.79, 41.60, 16.19, 29.76,
60.62804460525513,1.18, -0.05, 0.35, 0.55, -13.31, 10.31, 42.33, 15.31, 28.91,
60.73898887634277,0.92, 0.23, 0.22, 7.20, -33.26, 2.62, 43.35, 15.25, 25.94,
60.84860920906067,0.98, 0.09, 0.25, 24.78, 9.22, 2.38, 43.60, 14.23, 27.37,
60.95809626579285,0.81, 0.05, 0.32, 12.45, 19.23, -7.02, 42.77, 13.82, 27.22,
61.06723189353943,0.85, 0.06, 0.35, 1.59, 5.07, -2.93, 41.89, 13.92, 27.54,
61.17665243148804,1.08, 0.04, 0.37, -0.67, -9.95, -8.42, 42.24, 14.56, 28.50,
61.286019802093506,1.09, -0.09, 0.27, -1.04, -34.18, -3.54, 42.87, 15.45, 27.64,
61.397247314453125,0.93, -0.06, 0.25, -14.83, 7.57, -10.62, 43.52, 16.33, 26.50,
61.50729703903198,0.91, 0.05, 0.28, -8.12, 20.26, -1.04, 43.09, 17.03, 26.73,
61.61742687225342,0.78, -0.04, 0.33, 2.32, 12.76, 10.13, 42.52, 16.28, 29.63,
61.72761392593384,0.89, -0.04, 0.36, -4.58, 8.24, 3.72, 42.11, 15.60, 29.10,
61.83670377731323,1.19, -0.07, 0.41, -7.93, -1.10, 8.18, 42.70, 15.69, 29.85,
61.94618463516235,0.94, 0.13, 0.22, -0.37, -30.52, 5.92, 42.79, 14.75, 27.89,
62.0566611289978,0.97, 0.12, 0.21, 19.29, 9.52, 4.33, 42.86, 14.12, 27.04,
62.16649389266968,0.83, 0.05, 0.28, 22.03, 17.33, -2.20, 42.18, 13.89, 27.56,
62.27617526054382,0.87, 0.05, 0.34, 9.70, 7.57, -6.59, 42.25, 13.65, 29.17,
62.38626432418823,1.12, 0.01, 0.37, 4.94, -4.03, -4.94, 41.93, 14.07, 29.16,
62.49766778945923,1.20, -0.09, 0.32, 0.98, -20.75, 3.17, 42.55, 14.20, 28.93,
62.606391191482544,0.91, -0.15, 0.23, -24.35, -2.44, -15.20, 43.42, 13.85, 27.23,
62.716304302215576,0.85, 0.03, 0.27, -30.52, 16.36, -7.20, 42.76, 18.65, 27.04,
62.826611280441284,0.86, -0.03, 0.34, -10.13, 8.00, 11.29, 42.46, 16.38, 27.86,
62.936737298965454,0.81, -0.06, 0.33, -8.54, -0.18, 5.00, 42.68, 16.24, 28.70,
63.046260833740234,1.19, -0.08, 0.36, -12.33, -9.77, 6.96, 42.85, 16.61, 30.19,
63.15741801261902,1.03, 0.21, 0.21, -0.85, -8.48, 5.25, 43.43, 17.29, 26.59,
63.26850390434265,0.91, 0.03, 0.17, 14.04, 16.24, 1.89, 43.35, 16.08, 27.56,
63.378122091293335,0.90, 0.10, 0.26, 5.62, 19.47, -6.59, 42.30, 16.54, 29.66,
63.48860263824463,0.87, 0.06, 0.29, 1.40, 8.85, -9.28, 41.83, 16.44, 32.53,
63.598724603652954,1.07, 0.07, 0.28, -0.67, -6.41, -16.72, 41.03, 17.72, 31.79,
63.70929670333862,1.10, -0.13, 0.20, -3.78, -22.71, -1.95, 41.86, 18.84, 30.80,
63.819693088531494,0.92, -0.09, 0.16, -16.72, 12.88, -10.25, 42.14, 19.48, 30.47,
63.93017053604126,0.97, 0.01, 0.19, -17.40, 17.76, 4.21, 40.63, 20.76, 30.33,
64.04045176506042,0.91, 0.04, 0.23, 0.49, 0.55, 7.93, 40.47, 21.03, 32.79,
64.15067219734192,0.96, -0.01, 0.23, 3.97, 4.58, 3.30, 39.88, 19.71, 33.48,
64.25987362861633,1.16, -0.09, 0.29, -6.71, -5.68, -2.50, 40.00, 19.35, 32.67,
64.37088251113892,1.01, 0.11, 0.11, 4.03, -17.94, 6.59, 41.09, 19.47, 30.54,
64.48152446746826,0.93, 0.05, 0.08, 16.36, 8.42, 6.16, 40.16, 18.79, 31.46,
64.59148049354553,0.87, 0.04, 0.20, 2.14, 12.70, -5.31, 40.21, 18.29, 32.45,
64.70171594619751,0.94, 0.09, 0.24, -2.08, 6.71, -8.67, 39.92, 18.65, 33.45,
64.81193161010742,1.09, 0.06, 0.19, -5.07, -6.65, -9.46, 39.04, 20.07, 34.55,
64.92107772827148,1.16, -0.13, 0.16, 1.34, -45.78, 4.70, 40.11, 20.64, 31.93,
65.03105592727661,0.89, -0.11, 0.08, -9.64, 19.84, -14.47, 40.80, 20.47, 32.34,
65.14109086990356,0.95, 0.01, 0.14, -14.95, 6.29, 3.78, 39.55, 22.01, 32.54,
65.24995851516724,0.89, 0.00, 0.21, 9.16, 11.60, 8.61, 39.10, 21.95, 33.69,
65.36012983322144,0.89, -0.08, 0.21, 13.24, 7.57, 14.28, 39.54, 20.43, 33.37,
65.47142291069031,1.29, -0.09, 0.21, -2.44, -3.23, 7.39, 39.62, 18.81, 35.12,
65.58159017562866,0.90, 0.15, 0.09, 6.35, -38.15, 3.11, 40.99, 18.35, 31.57,
65.6902666091919,1.01, 0.06, 0.08, 24.78, 8.18, 9.70, 40.59, 16.97, 32.10,
65.79882025718689,0.81, 0.05, 0.19, 8.73, 8.06, -9.34, 40.41, 16.49, 33.04,
65.90835666656494,0.90, 0.04, 0.26, 1.59, 4.15, -10.25, 39.45, 17.20, 33.36,
66.01794338226318,1.17, 0.01, 0.24, 4.76, -6.71, -7.45, 40.49, 18.07, 33.62,
66.1271607875824,1.08, -0.16, 0.07, -5.55, -40.65, 2.26, 40.54, 18.43, 32.93,
66.23709630966187,0.97, -0.05, 0.15, -16.48, -6.35, -6.41, 41.26, 19.17, 30.58,
66.34737920761108,0.80, 0.05, 0.24, -13.92, 9.77, 4.82, 41.76, 19.80, 29.72,
66.45708560943604,0.88, 0.04, 0.30, 6.04, 7.26, 0.43, 42.05, 19.38, 29.98,
66.56593155860901,1.00, -0.09, 0.26, 14.40, 10.86, 9.46, 41.08, 19.56, 31.76,
66.67637705802917,1.22, -0.01, 0.29, 11.72, -21.24, 11.29, 41.58, 17.55, 32.68,
66.78629994392395,0.90, 0.15, 0.14, 28.56, 3.05, 8.12, 43.14, 15.81, 30.21,
66.89537358283997,0.86, -0.04, 0.21, 21.85, 7.93, 3.85, 41.86, 12.90, 30.99,
67.0042200088501,0.88, 0.07, 0.25, 4.64, 11.72, -5.98, 41.80, 13.62, 31.64,
67.11407136917114,0.96, 0.04, 0.23, 1.04, -7.08, -7.75, 41.97, 14.11, 31.38,
67.2245078086853,1.14, 0.15, 0.30, 1.71, -10.56, -4.03, 42.04, 14.38, 30.43,
67.33433723449707,0.83, -0.19, 0.28, -4.58, 5.37, -7.75, 42.87, 14.45, 28.81,
67.44434142112732,0.98, 0.02, 0.23, -29.05, 20.57, -10.56, 42.38, 14.93, 30.52,
67.55325317382812,0.89, -0.02, 0.24, -8.06, 12.70, 4.94, 42.09, 16.25, 30.15,
67.66318464279175,0.89, -0.02, 0.25, -4.46, 4.33, 7.63, 41.43, 16.54, 32.79,
67.7721221446991,1.11, -0.02, 0.27, -3.97, -16.05, 5.49, 41.64, 15.52, 31.75,
67.88165283203125,1.09, 0.06, 0.16, 4.70, -36.32, 3.85, 42.30, 15.47, 28.70,
67.99221634864807,0.94, 0.12, 0.18, 17.88, 9.64, 9.52, 42.48, 14.93, 28.37,
68.10208511352539,0.80, 0.04, 0.23, 8.79, 9.89, -7.45, 42.08, 14.15, 29.88,
68.21258568763733,0.88, 0.07, 0.28, -4.03, 5.19, -4.46, 42.15, 14.36, 30.68,
68.3221845626831,1.09, 0.03, 0.32, -5.37, -5.62, -5.13, 41.55, 15.09, 31.84,
68.43211579322815,1.15, -0.01, 0.27, -9.46, -23.25, 0.55, 42.48, 15.77, 30.47,
68.54104685783386,0.98, -0.13, 0.21, -20.26, 0.79, -14.83, 43.10, 17.03, 29.24,
68.65110445022583,0.93, 0.01, 0.26, -18.37, 8.42, -8.18, 42.29, 18.60, 27.61,
68.76229858398438,0.82, -0.01, 0.29, 2.08, -0.98, 8.67, 42.10, 18.35, 29.65,
68.87224125862122,0.91, -0.09, 0.28, 1.95, 6.53, 3.97, 41.93, 18.01, 29.55,
68.98114585876465,1.12, -0.04, 0.34, 0.24, -25.02, 7.32, 42.46, 16.98, 29.96,
69.09167814254761,0.89, 0.21, 0.20, 12.70, -12.94, 1.65, 42.79, 16.43, 26.75,
69.2011604309082,0.93, -0.02, 0.26, 22.34, 19.17, 6.84, 42.74, 15.80, 27.59,
69.31102085113525,0.90, 0.04, 0.29, 8.67, 27.22, -2.75, 42.00, 15.73, 28.91,
69.42049551010132,0.88, 0.08, 0.25, 8.24, 6.04, 0.73, 42.02, 15.04, 30.48,
69.53002166748047,1.16, 0.13, 0.22, 5.37, -20.26, -6.16, 42.52, 14.88, 30.60,
69.64016795158386,0.99, -0.17, 0.17, -5.00, -6.96, -9.22, 42.99, 15.10, 28.78,
69.75030159950256,0.87, 0.07, 0.21, -19.04, 5.98, -2.32, 43.02, 15.95, 29.05,
69.85885095596313,0.88, -0.03, 0.27, -6.47, 11.11, 3.30, 42.16, 16.00, 29.83,
69.9681146144867,0.85, -0.04, 0.28, -12.51, 8.42, 5.25, 41.92, 16.42, 30.70,
70.07673358917236,1.17, -0.04, 0.31, -14.34, -8.24, 8.42, 42.30, 16.46, 30.90,
70.18736028671265,1.04, 0.18, 0.16, -8.00, -17.88, 10.74, 42.68, 15.42, 29.74,
70.29661822319031,1.01, 0.14, 0.17, 15.87, 12.39, 12.45, 42.77, 14.51, 29.04,
70.40503454208374,0.82, 0.11, 0.21, 8.61, 12.76, -3.85, 42.13, 13.64, 29.69,
70.51615762710571,0.83, 0.15, 0.27, 3.30, 7.81, -5.55, 41.28, 14.18, 31.67,
70.62565493583679,1.17, 0.13, 0.34, 3.30, -6.77, -8.24, 41.54, 14.99, 31.92,
70.73510146141052,1.18, 0.03, 0.17, 6.41, -37.29, -5.07, 41.75, 15.06, 29.24,
70.84367871284485,0.96, -0.09, 0.25, 0.43, -6.96, -13.67, 43.02, 15.60, 27.23,
70.95422077178955,0.77, 0.02, 0.27, -5.86, 9.95, 3.91, 42.79, 15.87, 27.94,
71.06338310241699,0.85, -0.05, 0.35, -5.31, 3.30, 3.54, 42.36, 15.34, 30.16,
71.17280220985413,0.99, -0.01, 0.33, -9.95, 15.20, 5.74, 41.82, 15.54, 30.97,
71.28461217880249,1.15, -0.01, 0.28, -2.75, -18.07, 8.79, 42.11, 15.10, 29.74,
71.39411067962646,0.99, 0.25, 0.19, 9.64, 3.17, 1.95, 42.90, 14.61, 28.26,
71.50410556793213,0.98, 0.02, 0.26, 12.45, 12.51, 1.10, 42.02, 14.05, 28.52,
71.61404657363892,0.79, 0.10, 0.28, 7.32, 13.12, -9.64, 41.67, 14.65, 30.24,
71.72386074066162,0.89, 0.07, 0.27, 1.22, 8.42, -5.74, 41.25, 14.28, 31.09,
71.83382034301758,1.23, 0.21, 0.34, 8.85, -15.87, -11.66, 42.00, 15.69, 30.93,
71.94451832771301,0.84, -0.20, 0.09, -2.93, -20.26, -6.71, 42.55, 15.44, 28.65,
72.05457282066345,1.04, -0.03, 0.20, -22.09, 9.52, -17.15, 42.80, 17.58, 28.76,
72.16274309158325,0.80, -0.00, 0.25, -13.67, 23.93, 3.54, 42.57, 18.10, 28.96,
72.27336549758911,0.88, -0.04, 0.29, -16.17, 12.15, 0.85, 41.97, 18.66, 29.42,
72.38302063941956,1.21, -0.04, 0.33, -11.84, -0.73, 5.19, 40.80, 18.65, 31.59,
72.49285578727722,0.99, 0.08, 0.14, -3.72, -42.66, 5.07, 41.39, 18.70, 30.49,
72.60360836982727,1.06, 0.14, 0.19, 22.28, 15.14, 10.07, 42.63, 17.20, 28.72,
72.71465110778809,0.79, -0.04, 0.22, 16.78, 13.12, -5.80, 42.72, 16.47, 28.36,
72.82528924942017,0.91, 0.05, 0.26, 7.63, 11.17, 0.00, 41.98, 16.47, 30.59,
72.93498134613037,1.13, 0.05, 0.34, 5.13, -6.04, -4.76, 42.52, 16.27, 30.77,
73.04563641548157,1.07, -0.08, 0.18, 2.01, -27.10, 0.61, 43.16, 16.65, 30.04,
73.15619158744812,1.02, -0.12, 0.22, -19.78, 8.85, -19.10, 43.38, 18.04, 27.92,
73.26738977432251,0.81, 0.01, 0.25, -19.29, 21.24, -3.60, 42.54, 19.24, 29.44,
73.37752985954285,0.84, -0.04, 0.27, -4.52, 13.98, 4.15, 41.97, 18.57, 29.49,
73.48845314979553,1.00, -0.08, 0.31, -5.55, 8.18, 5.62, 42.25, 19.24, 30.94,
73.59838938713074,1.21, -0.07, 0.24, 2.08, -23.99, 5.86, 41.99, 18.77, 31.43,
73.7081036567688,0.90, 0.16, 0.11, 12.45, 8.42, 5.19, 43.55, 18.02, 29.41,
73.81917691230774,0.88, -0.03, 0.18, 23.44, 8.79, -1.22, 43.07, 17.13, 32.40,
73.92789912223816,0.96, -0.02, 0.15, 13.12, 1.53, 2.08, 42.43, 16.76, 31.62,
74.03843021392822,0.81, 0.09, 0.27, 6.71, -8.30, 1.53, 42.70, 15.59, 31.54,
74.14749717712402,1.19, 0.15, 0.30, 8.97, -5.25, -2.01, 43.01, 15.42, 30.70,
74.25626301765442,0.96, -0.19, 0.23, -11.90, 5.43, -10.25, 43.73, 15.31, 29.63,
74.36616706848145,1.01, -0.02, 0.23, -22.52, 11.41, -10.80, 42.83, 17.50, 30.55,
74.47624492645264,0.84, -0.03, 0.23, -8.85, 4.70, 6.84, 41.83, 17.52, 31.52,
74.58547472953796,0.91, -0.07, 0.27, -10.80, 10.93, 7.57, 41.83, 16.64, 33.02,
74.69644165039062,1.17, -0.03, 0.27, -12.15, -16.91, 8.48, 42.75, 17.20, 32.70,
74.80585098266602,1.03, 0.12, 0.13, -2.44, -32.59, 5.98, 42.83, 16.52, 30.62,
74.91565728187561,1.04, 0.12, 0.20, 14.10, 5.13, 13.67, 42.61, 15.47, 29.88,
75.02562499046326,0.78, 0.08, 0.25, 17.82, 12.33, -6.29, 42.93, 14.07, 31.08,
75.13637018203735,0.87, 0.06, 0.31, 13.55, 4.03, -1.16, 42.49, 14.17, 30.81,
75.24537324905396,1.12, 0.03, 0.31, -5.19, -7.93, -12.27, 42.52, 15.23, 30.94,
75.3553261756897,0.92, -0.23, 0.11, -30.09, -14.95, -13.98, 42.98, 16.53, 29.27,
75.46524953842163,1.08, -0.01, 0.14, -27.22, 17.58, -22.28, 42.87, 19.84, 29.93,
75.57400298118591,0.80, 0.07, 0.21, -8.24, 17.21, 11.35, 42.10, 20.76, 31.38,
75.68404078483582,0.89, -0.06, 0.28, 5.43, 11.35, 5.86, 42.40, 19.57, 31.35,
75.79458832740784,1.11, -0.05, 0.26, -2.93, 7.45, 16.11, 42.10, 19.15, 32.82,
75.90413117408752,1.19, 0.04, 0.16, 3.97, -26.49, 4.03, 42.61, 17.98, 32.26,
76.01446604728699,0.97, 0.13, 0.14, 20.87, 14.04, 11.23, 42.79, 15.93, 31.71,
76.1245002746582,0.85, 0.04, 0.21, 22.64, 8.36, -1.10, 42.72, 15.03, 31.36,
76.23475790023804,0.85, 0.03, 0.28, 6.29, 12.39, -5.07, 41.74, 14.98, 32.30,
76.34560418128967,1.08, 0.03, 0.25, -4.27, -3.72, -8.24, 41.10, 15.23, 32.97,
76.45645594596863,1.17, -0.08, 0.11, -7.87, -23.56, -3.17, 41.92, 16.31, 33.67,
76.56570506095886,1.01, -0.09, 0.09, -17.33, 7.32, -13.00, 42.93, 17.52, 32.30,
76.67571234703064,0.85, 0.06, 0.15, -13.55, 10.25, 6.96, 42.35, 18.30, 31.34,
76.78483200073242,0.91, 0.00, 0.26, 2.69, -13.24, 5.31, 41.78, 17.55, 31.54,
76.8960611820221,1.00, -0.06, 0.26, -7.08, -1.53, 9.64, 41.77, 16.85, 31.90,
77.0058331489563,1.05, -0.00, 0.26, 0.37, -27.53, 5.07, 42.00, 16.48, 30.65,
77.11598134040833,0.91, 0.13, 0.22, 11.84, 6.65, 2.14, 42.91, 16.22, 28.64,
77.22554612159729,0.93, 0.04, 0.28, 19.29, 22.58, 5.31, 42.50, 15.69, 29.79,
77.3355827331543,0.86, 0.03, 0.28, 12.15, 20.02, -4.94, 42.03, 15.38, 32.86,
77.4450204372406,1.05, 0.07, 0.24, 10.99, 1.77, -3.85, 41.80, 15.06, 33.31,
77.55474543571472,1.17, 0.04, 0.27, 10.25, -12.51, 8.00, 42.03, 14.71, 31.52,
77.6651337146759,1.03, -0.19, 0.15, -13.31, 4.82, -13.06, 42.66, 13.70, 30.42,
77.77610754966736,0.88, 0.05, 0.20, -31.92, 12.02, -8.42, 42.04, 16.13, 31.07,
77.88637137413025,0.89, -0.00, 0.26, -10.99, 12.76, 9.03, 41.56, 16.61, 32.23,
77.9965467453003,0.95, -0.03, 0.21, -10.38, 1.10, 7.45, 41.65, 16.31, 32.68,
78.10587334632874,1.12, -0.00, 0.21, 1.77, -35.28, 2.26, 42.21, 16.08, 32.10,
78.21594524383545,0.89, 0.15, 0.11, 12.76, 2.56, 5.19, 42.49, 15.94, 30.55,
78.32617115974426,0.88, 0.03, 0.22, 17.88, 10.62, -0.67, 42.68, 15.03, 31.10,
78.43581748008728,0.91, 0.05, 0.26, 4.88, 15.44, -1.10, 41.63, 14.23, 32.62,
78.54572319984436,0.92, 0.10, 0.20, -1.16, 2.50, -5.19, 41.44, 15.05, 32.63,
78.65605068206787,1.17, 0.10, 0.25, 4.27, -18.49, -5.49, 42.05, 15.37, 31.47,
78.76577520370483,0.91, -0.23, 0.21, -8.30, -10.68, -10.44, 43.07, 15.94, 29.03,
78.87562966346741,0.91, 0.04, 0.22, -30.15, 17.33, -5.80, 42.21, 17.76, 31.21,
78.9863612651825,0.93, 0.02, 0.22, -7.69, 22.89, -1.65, 41.54, 18.55, 32.36,
79.09528660774231,0.92, -0.03, 0.18, -8.48, 2.01, 3.85, 40.87, 19.25, 32.18,
79.20407915115356,1.13, -0.07, 0.22, 3.78, -24.23, 8.48, 41.52, 18.24, 31.59,
79.31341457366943,0.89, 0.13, 0.14, 12.02, -14.04, 4.15, 42.41, 18.54, 31.05,
79.42434597015381,0.96, 0.07, 0.19, 21.18, 10.25, 4.52, 42.76, 16.13, 31.27,
79.53314185142517,0.85, 0.05, 0.27, 6.16, 17.82, -4.70, 41.92, 15.58, 31.29,
79.64289355278015,0.89, 0.09, 0.23, 14.71, 5.25, -1.65, 42.29, 15.72, 31.38,
79.75186109542847,1.24, 0.12, 0.28, 12.57, -16.42, 0.55, 42.27, 15.91, 32.50,
79.86213684082031,0.85, -0.16, 0.13, -4.64, -27.53, 2.62, 42.83, 14.44, 29.71,
79.97203540802002,1.04, 0.00, 0.20, -16.60, 16.78, -9.40, 43.02, 14.84, 28.88,
80.08144116401672,0.79, 0.01, 0.24, -10.44, 13.18, 5.00, 42.72, 15.94, 30.41,
80.1900885105133,0.97, -0.03, 0.29, -14.10, 13.37, 3.42, 42.07, 15.82, 32.25,
80.30025744438171,1.24, 0.07, 0.30, -11.72, 2.14, 2.56, 41.86, 16.97, 31.41,
80.40900683403015,1.02, 0.12, 0.13, -3.05, -34.36, -4.52, 43.33, 17.25, 30.24,
80.51944732666016,1.06, 0.12, 0.17, 17.33, 8.48, 2.62, 43.49, 16.77, 29.86,
80.62764811515808,0.78, -0.01, 0.22, 10.50, 11.41, -5.37, 42.76, 16.04, 29.79,
80.73800802230835,0.85, 0.10, 0.28, -6.47, 4.39, -4.70, 41.69, 15.98, 31.25,
80.84744238853455,1.19, 0.08, 0.36, 3.54, -7.75, 4.52, 42.37, 16.65, 30.35,
80.95731163024902,1.11, -0.01, 0.19, 14.10, -30.21, 6.23, 42.91, 16.17, 29.94,
81.06727170944214,0.91, -0.16, 0.22, -9.22, 9.28, -13.98, 43.35, 15.31, 27.36,
81.17804622650146,0.84, 0.07, 0.24, -17.03, 18.86, 3.17, 43.08, 16.74, 29.53,
81.2876763343811,0.90, -0.01, 0.25, -10.86, 1.71, -0.67, 41.35, 16.87, 32.04,
81.39760065078735,0.97, 0.00, 0.23, -9.58, 3.85, 4.21, 41.70, 17.00, 31.25,
81.50736117362976,1.17, -0.01, 0.22, 5.00, -18.86, -0.79, 42.52, 17.55, 31.69,
81.61697196960449,0.99, 0.13, 0.17, 21.55, 1.59, 5.98, 43.20, 16.61, 29.57,
81.72668981552124,0.96, -0.01, 0.20, 25.76, 14.71, 0.31, 42.92, 15.36, 31.08,
81.83717036247253,0.86, 0.04, 0.24, 7.32, 15.50, -8.97, 41.94, 15.38, 31.92,
81.94726872444153,0.93, 0.05, 0.22, 7.51, -0.73, -6.04, 41.58, 16.06, 32.57,
82.05696821212769,1.23, 0.09, 0.28, 6.47, -19.23, -0.06, 42.58, 15.88, 31.67,
82.16683912277222,0.85, -0.19, 0.14, -11.17, -15.50, -4.09, 43.03, 15.61, 29.49,
82.27612614631653,1.02, -0.03, 0.17, -33.94, 18.07, -13.43, 43.18, 18.09, 29.96,
82.38553047180176,0.83, 0.07, 0.21, -21.36, 22.03, 8.06, 42.05, 18.95, 31.54,
82.4951183795929,0.90, -0.00, 0.25, -10.80, 9.83, 6.29, 41.47, 18.92, 31.45,
82.60470366477966,1.32, -0.01, 0.26, -6.47, -8.85, 2.75, 41.75, 19.17, 33.46,
82.71444511413574,1.00, 0.15, 0.11, 3.97, -37.66, -0.12, 42.55, 18.58, 30.75,
82.8249249458313,1.05, 0.11, 0.18, 20.75, 8.54, 9.22, 43.33, 18.09, 29.92,
82.93441438674927,0.76, -0.01, 0.25, 15.81, 13.49, -4.39, 42.72, 16.19, 29.55,
83.04454851150513,0.87, 0.05, 0.25, 2.99, 4.09, -2.56, 42.68, 16.44, 31.90,
83.15365409851074,1.24, 0.07, 0.36, 9.34, -5.43, -0.92, 42.32, 16.53, 31.24,
83.26455044746399,1.03, -0.04, 0.15, 3.60, -23.80, 2.93, 43.51, 16.49, 29.76,
83.37391328811646,0.97, -0.15, 0.17, -7.93, 13.98, -14.34, 43.37, 16.37, 28.28,
83.48529839515686,0.85, 0.01, 0.24, -10.44, 21.48, 6.23, 42.58, 16.94, 31.20,
83.59503054618835,0.81, -0.06, 0.29, -6.59, 7.63, 3.05, 42.24, 16.75, 31.42,
83.70460319519043,0.97, -0.01, 0.28, -7.45, 4.94, 3.72, 42.24, 17.05, 32.85,
83.8162751197815,1.21, -0.03, 0.22, 3.48, -20.32, -5.37, 42.86, 16.59, 31.56,
83.92720746994019,0.91, 0.18, 0.12, 13.85, 6.53, 2.01, 42.88, 17.05, 29.75,
84.03706550598145,0.86, -0.07, 0.18, 22.64, 15.08, -4.09, 42.96, 15.39, 30.80,
84.1472315788269,0.87, 0.05, 0.27, 3.17, 12.88, -5.92, 42.32, 15.70, 31.54,
84.25690364837646,1.00, 0.04, 0.27, 4.39, 0.31, -1.46, 41.56, 15.92, 32.21,
84.3679826259613,1.18, 0.06, 0.19, -3.36, -19.41, 1.83, 42.38, 16.15, 31.30,
84.4778425693512,1.01, -0.13, 0.10, -9.89, -0.24, -8.00, 43.20, 16.54, 30.92,
84.5879294872284,0.87, 0.03, 0.18, -16.24, 6.71, -2.99, 42.88, 17.26, 30.74,
84.69695687294006,0.82, -0.00, 0.30, -4.58, 13.79, 11.66, 42.02, 16.80, 32.26,
84.80706429481506,0.97, -0.02, 0.23, -8.30, 9.28, 5.43, 41.86, 16.81, 33.15,
84.9172260761261,1.32, -0.08, 0.25, -9.83, -14.83, 8.24, 41.72, 16.77, 33.73,
85.02645182609558,0.86, 0.19, 0.04, -8.24, -33.20, 1.34, 43.10, 16.25, 30.60,
85.13650107383728,1.11, 0.10, 0.18, 23.25, 9.77, 6.10, 43.04, 15.58, 29.16,
85.24601650238037,0.78, 0.03, 0.25, 19.90, 9.95, -10.31, 43.24, 14.29, 30.59,
85.35667490959167,0.83, 0.02, 0.27, 1.95, 1.59, -7.51, 42.19, 14.53, 31.63,
85.46738529205322,1.22, 0.08, 0.34, -6.84, -6.90, -10.93, 42.41, 15.42, 30.52,
85.57749128341675,0.95, -0.09, 0.15, -14.89, -26.79, -1.53, 42.64, 16.63, 30.07,
85.68749356269836,1.01, -0.13, 0.18, -23.80, 14.89, -20.63, 42.98, 18.60, 29.82,
85.79715132713318,0.77, 0.05, 0.25, -8.91, 19.84, 10.62, 42.80, 18.84, 31.07,
85.905592918396,0.86, -0.06, 0.25, 2.50, 6.41, 3.23, 42.19, 18.59, 32.73,
86.01575255393982,1.16, -0.02, 0.28, -5.62, 1.53, 7.63, 41.91, 18.21, 33.24,
86.125483751297,1.17, 0.07, 0.10, 6.59, -42.42, -2.56, 42.40, 17.92, 30.80,
86.23614311218262,0.91, 0.13, 0.24, 21.24, 25.09, 6.77, 43.21, 16.75, 30.05,
86.34587121009827,0.93, -0.05, 0.22, 20.51, 19.17, -9.64, 41.74, 15.71, 31.57,
86.45648384094238,0.86, 0.03, 0.22, 3.60, 15.44, -5.55, 41.04, 15.56, 34.40,
86.56639504432678,1.07, 0.01, 0.22, -2.44, -10.74, -4.15, 41.00, 16.13, 34.52,
86.67616748809814,1.18, 0.02, 0.21, -0.49, -11.35, 2.08, 42.14, 17.26, 32.71,
86.78643035888672,0.95, -0.14, 0.13, -11.54, -0.92, -7.02, 42.98, 17.07, 31.31,
86.89557719230652,0.96, 0.03, 0.19, -23.19, 7.63, -3.54, 42.35, 18.01, 31.68,
87.00593495368958,0.86, -0.02, 0.25, -1.71, 4.58, 9.77, 42.15, 17.70, 32.37,
87.11696362495422,0.93, -0.08, 0.22, -6.10, 2.26, 4.33, 42.15, 17.58, 33.70,
87.22693991661072,1.18, -0.08, 0.28, -9.09, -25.70, 0.67, 42.22, 18.26, 31.63,
87.33680868148804,0.88, 0.21, 0.12, 10.44, -20.45, 4.82, 43.63, 17.53, 29.09,
87.44715523719788,0.97, 0.00, 0.21, 26.00, 14.71, 9.09, 42.97, 15.65, 30.20,
87.5554633140564,0.87, 0.03, 0.26, 6.35, 14.53, -9.28, 42.26, 15.22, 30.65,
87.66563820838928,0.87, 0.03, 0.25, 3.30, 1.22, -4.82, 42.53, 15.63, 31.93,
87.77730870246887,1.17, 0.11, 0.30, 5.37, -15.26, -4.46, 43.07, 16.28, 30.19,
87.88586330413818,0.84, -0.18, 0.12, -6.59, -11.35, -4.21, 43.86, 16.70, 28.92,
87.99572801589966,1.09, -0.05, 0.22, -20.20, 23.68, -14.65, 43.05, 18.19, 30.25,
88.10747599601746,0.81, 0.02, 0.24, -4.27, 5.74, 11.23, 42.80, 17.82, 30.98,
88.21723103523254,0.91, -0.06, 0.27, -7.20, 9.77, 3.66, 42.37, 17.68, 31.09,
88.32686853408813,1.18, -0.04, 0.30, -9.40, -17.03, 5.80, 41.86, 17.41, 32.12,
88.43681955337524,1.00, 0.07, 0.16, -2.50, -26.49, 2.14, 42.99, 17.53, 29.38,
88.54761052131653,1.00, 0.12, 0.20, 15.26, 5.25, 7.08, 43.36, 16.37, 28.88,
88.65814781188965,0.80, 0.00, 0.27, 15.56, 14.47, -6.90, 43.25, 15.26, 29.24,
88.76840949058533,0.87, 0.04, 0.28, 1.34, 5.49, -7.81, 42.49, 15.87, 31.65,
88.87837409973145,1.09, 0.02, 0.35, -0.43, -12.45, -1.65, 42.44, 16.56, 31.18,
88.98703527450562,1.14, 0.01, 0.22, 10.19, -24.05, 4.46, 43.02, 16.69, 30.13,
89.09767174720764,0.86, -0.15, 0.23, -7.20, -0.61, -10.07, 44.32, 16.05, 27.54,
89.20791125297546,0.84, 0.01, 0.30, -10.50, 20.02, -4.76, 43.40, 17.26, 28.64,
89.31798791885376,0.83, -0.02, 0.31, -3.66, 16.30, 5.68, 42.35, 17.29, 30.94,
89.42824912071228,0.93, -0.08, 0.25, -6.23, 13.12, 6.10, 42.31, 17.07, 32.34,
89.53709006309509,1.23, -0.12, 0.28, -6.53, -24.54, -0.49, 42.30, 17.26, 31.42,
89.64779090881348,0.78, 0.21, 0.10, 13.43, -5.74, 5.55, 43.71, 16.74, 29.46,
89.75724530220032,0.95, -0.03, 0.19, 25.51, 12.27, 7.51, 43.91, 15.54, 29.42,
89.86769938468933,0.86, 0.04, 0.25, 5.62, 14.16, -5.98, 42.77, 14.53, 31.51,
89.97772240638733,0.86, 0.04, 0.26, 4.09, 0.00, -4.88, 42.79, 14.88, 31.36,
90.08736681938171,1.16, 0.15, 0.31, 0.18, -13.73, -5.86, 42.86, 15.33, 31.84,
90.19706654548645,0.85, -0.18, 0.16, -3.42, -27.77, -0.85, 43.82, 15.54, 28.54,
90.30675911903381,1.02, -0.07, 0.25, -27.77, 14.53, -13.43, 43.29, 16.13, 28.27,
90.41908621788025,0.77, 0.05, 0.27, -10.93, 18.86, 13.92, 42.94, 17.88, 29.61,
90.52987241744995,0.94, -0.03, 0.29, -8.42, 9.64, 3.42, 42.25, 17.04, 31.80,
90.64135217666626,1.21, 0.05, 0.29, -5.19, -4.88, 10.07, 42.29, 17.16, 32.42,
90.7506811618805,1.09, 0.13, 0.18, 10.13, -35.58, 3.54, 43.35, 15.95, 29.88,
90.86100196838379,1.00, 0.17, 0.24, 24.96, 4.52, 4.21, 43.32, 14.78, 28.11,
90.97143483161926,0.81, 0.00, 0.29, 19.23, 11.47, -2.99, 43.04, 13.87, 28.30,
91.08031988143921,0.77, 0.02, 0.30, 2.69, 16.54, -4.94, 42.44, 13.40, 29.10,
91.18878769874573,1.00, 0.02, 0.33, -13.98, 11.17, -8.00, 41.61, 14.32, 32.45,
91.29852247238159,1.20, 0.08, 0.28, -11.78, -10.50, -3.78, 42.25, 15.53, 32.01,
91.40878796577454,1.01, -0.16, 0.15, -14.77, 2.99, -15.99, 42.81, 16.53, 29.37,
91.51857328414917,0.94, 0.04, 0.25, -20.32, 5.80, -4.15, 42.40, 18.27, 30.88,
91.62797522544861,0.77, -0.05, 0.25, -0.92, 13.24, 8.30, 42.03, 18.54, 31.57,
91.7371437549591,0.92, -0.10, 0.27, -4.27, 1.04, 11.96, 41.89, 17.82, 31.38,
91.84715151786804,1.14, -0.14, 0.30, -6.77, -28.81, 8.18, 42.49, 17.21, 32.47,
91.95676565170288,0.90, 0.26, 0.16, 9.40, -16.17, 4.88, 43.23, 16.71, 28.81,
92.06621742248535,0.97, 0.02, 0.22, 23.56, 12.39, 10.38, 43.16, 15.27, 28.60,
92.1760745048523,0.83, 0.06, 0.27, 6.77, 16.60, -6.84, 42.81, 14.82, 30.30,
92.28500413894653,0.89, 0.05, 0.29, 2.99, 6.59, -7.20, 42.05, 15.50, 30.98,
92.39643478393555,1.11, 0.13, 0.29, 7.69, -17.33, -5.31, 41.91, 15.95, 30.83,
92.50744009017944,0.92, -0.16, 0.15, -1.22, -33.69, -1.22, 43.16, 15.41, 29.97,
92.61698150634766,1.00, 0.00, 0.25, -21.18, 10.56, -17.58, 43.26, 16.17, 28.93,
92.72832417488098,0.81, 0.05, 0.26, -10.80, 25.57, 6.41, 42.44, 17.31, 29.57,
92.83709454536438,0.89, -0.04, 0.32, -7.93, 8.48, 2.93, 41.86, 17.05, 29.86,
92.94617819786072,1.11, -0.03, 0.32, -8.61, -6.65, 8.12, 41.99, 17.07, 30.91,
93.05628490447998,1.18, 0.07, 0.21, -9.09, -28.56, 1.53, 42.49, 16.89, 29.13,
93.1662278175354,0.93, 0.14, 0.23, 19.04, 3.36, 6.90, 43.25, 16.94, 27.89,
93.27646780014038,0.84, 0.01, 0.28, 26.55, 11.54, 1.89, 42.44, 14.61, 29.64,
93.38596081733704,0.81, 0.05, 0.32, 11.72, 8.06, -3.42, 42.32, 14.66, 29.49,
93.4945125579834,1.11, 0.01, 0.34, 0.85, 1.28, -8.67, 42.65, 15.25, 29.65,
93.60509586334229,1.13, -0.09, 0.25, -14.04, -24.66, -0.31, 42.70, 16.17, 28.76,
93.71471047401428,1.02, -0.13, 0.18, -25.45, 13.12, -17.33, 42.88, 17.19, 28.93,
93.82491254806519,0.85, 0.09, 0.25, -17.52, 14.47, 4.82, 42.91, 18.42, 29.15,
93.93499684333801,0.84, -0.04, 0.31, 2.99, -1.77, 11.96, 42.32, 17.46, 31.34,
94.04540753364563,1.01, -0.03, 0.26, -3.05, 0.37, 13.43, 42.92, 16.66, 32.15,
94.15602612495422,1.11, 0.03, 0.28, 6.65, -29.97, 2.20, 43.04, 15.80, 30.81,
94.26745581626892,0.89, 0.21, 0.20, 19.59, 4.46, 4.52, 43.09, 15.73, 27.10,
94.37768387794495,0.89, 0.03, 0.27, 28.75, 15.56, 0.18, 42.79, 13.82, 29.20,
94.48682808876038,0.83, 0.06, 0.29, 15.32, 23.74, -5.49, 42.42, 13.28, 30.62,
94.595942735672,0.88, 0.07, 0.28, 3.66, 9.77, -9.28, 41.99, 14.00, 32.14,
94.70507216453552,1.31, 0.10, 0.24, 3.54, -11.11, -11.29, 41.97, 15.36, 33.62,
94.8152060508728,1.00, -0.14, 0.14, -8.61, -4.70, -9.40, 43.13, 15.87, 29.22,
94.92372345924377,0.97, -0.05, 0.18, -24.05, 2.81, -4.21, 42.55, 17.04, 29.43,
95.03342652320862,0.77, -0.04, 0.24, -10.07, 12.70, 13.55, 43.40, 16.81, 29.82,
95.14302897453308,0.86, -0.08, 0.32, -4.70, 2.93, 6.16, 42.15, 15.89, 29.94,
95.25244688987732,1.20, -0.05, 0.34, -12.08, -15.26, 10.01, 42.59, 15.38, 30.38,
95.36241698265076,0.99, 0.18, 0.24, -8.36, -29.72, 5.31, 42.91, 15.50, 29.13,
95.47143816947937,1.00, 0.14, 0.23, 17.33, 14.22, 11.05, 42.92, 14.14, 28.37,
95.58153963088989,0.80, 0.05, 0.29, 20.02, 15.20, -2.50, 43.07, 13.13, 29.35,
95.69192934036255,0.75, 0.07, 0.32, 4.82, 6.35, -1.16, 42.50, 13.21, 30.37,
95.80372524261475,1.20, 0.08, 0.36, 4.39, 1.71, -9.28, 42.33, 13.31, 30.38,
95.91393756866455,1.12, -0.06, 0.15, 4.82, -35.10, -10.19, 42.40, 13.83, 30.22,
96.02435684204102,0.96, -0.09, 0.17, -8.61, 2.75, -13.00, 43.47, 15.56, 27.99,
96.13341164588928,0.87, 0.04, 0.29, -12.21, 16.24, 8.18, 42.76, 16.38, 29.83,
96.24270582199097,0.82, -0.02, 0.30, -4.09, 3.66, 4.52, 42.43, 14.89, 30.05,
96.35288834571838,0.98, -0.06, 0.31, -11.84, 2.14, 1.04, 42.00, 15.75, 31.23,
96.46156859397888,1.19, -0.10, 0.35, -7.32, -29.42, 2.38, 42.91, 15.33, 30.20,
96.57122325897217,0.84, 0.14, 0.15, 3.17, -17.52, 7.32, 43.43, 15.32, 26.28,
96.68052458763123,0.97, 0.07, 0.26, 17.76, 12.27, 4.58, 43.02, 14.76, 27.38,
96.79025077819824,0.78, 0.11, 0.27, 16.97, 20.32, -4.70, 42.92, 13.73, 29.13,
96.89895963668823,0.86, 0.02, 0.26, 15.81, 7.87, -6.53, 42.64, 12.84, 29.83,
97.00794577598572,1.19, 0.14, 0.26, 5.98, -17.03, -10.50, 42.61, 13.83, 29.38,
97.11722111701965,0.83, -0.19, 0.13, -10.19, -10.99, -16.30, 43.76, 14.58, 28.60,
97.22665476799011,1.09, -0.02, 0.20, -28.02, 6.04, -11.05, 43.08, 16.63, 28.82,
97.33600354194641,0.69, 0.07, 0.26, -9.52, 10.25, 18.68, 42.44, 16.61, 29.76,
97.44508385658264,0.86, -0.07, 0.31, 0.06, 10.38, 9.89, 42.20, 15.80, 30.10,
97.55391550064087,1.24, 0.00, 0.34, -17.70, -3.36, 8.85, 42.03, 15.73, 31.26,
97.66314339637756,1.09, 0.11, 0.23, -14.65, -37.23, -1.65, 42.77, 15.91, 28.77,
97.77227687835693,0.91, 0.18, 0.21, 7.45, 12.33, 4.94, 43.09, 14.81, 28.50,
97.88132905960083,0.84, 0.03, 0.26, 17.70, 16.91, -5.43, 42.60, 14.77, 28.53,
97.98972630500793,0.82, 0.06, 0.29, 12.76, 17.09, -3.54, 41.74, 14.92, 29.92,
98.09889817237854,0.96, 0.05, 0.30, 12.21, 1.04, -6.71, 42.07, 15.16, 32.53,
98.20778393745422,1.26, 0.01, 0.25, 13.92, -18.13, -4.70, 41.83, 15.14, 33.23,
98.317373752594,1.00, -0.15, 0.16, -6.65, -0.85, -14.95, 43.24, 14.92, 29.83,
98.42672896385193,0.94, 0.03, 0.22, -20.20, 7.69, 1.59, 42.91, 16.56, 29.57,
98.53609442710876,0.77, -0.08, 0.26, -13.06, 18.49, 11.23, 42.49, 15.83, 30.68,
98.64498543739319,0.89, -0.07, 0.32, -12.88, 8.79, 6.16, 41.78, 15.47, 30.73,
98.75418138504028,1.26, -0.09, 0.34, -16.30, -4.21, 6.10, 42.38, 16.36, 32.25,
98.8631763458252,0.98, 0.20, 0.12, -14.53, -18.13, 3.48, 42.71, 16.53, 29.15,
98.97289729118347,1.06, 0.11, 0.17, 23.56, 14.28, 5.19, 42.72, 16.44, 31.25,
99.08249711990356,0.78, 0.02, 0.22, 27.53, 13.37, -8.79, 41.66, 15.14, 30.79,
99.19161891937256,0.84, -0.01, 0.22, 9.52, 7.08, -5.55, 41.35, 15.48, 32.06,
99.30076003074646,1.21, 0.02, 0.32, 1.10, -7.39, -10.31, 42.15, 15.80, 33.07,
99.41175937652588,1.10, -0.07, 0.11, 0.24, -36.32, 2.08, 43.54, 15.95, 30.40,
99.5198438167572,0.94, -0.14, 0.15, -11.96, 11.05, -11.54, 43.55, 16.35, 29.74,
99.63026356697083,0.81, 0.04, 0.21, -14.16, 17.27, 13.85, 42.69, 17.31, 31.08,
99.73921847343445,0.91, -0.04, 0.28, 1.77, -0.92, 8.06, 42.37, 15.93, 31.34,
99.84975862503052,1.01, -0.06, 0.28, -12.88, -3.97, 2.81, 42.08, 15.72, 32.45,
99.95845413208008,1.16, 0.05, 0.21, -9.64, -36.19, 2.26, 42.57, 15.87, 30.85,
100.06934142112732,0.88, 0.19, 0.19, 13.43, 8.42, 4.15, 43.07, 15.66, 28.45,
100.18011212348938,0.89, -0.05, 0.25, 23.19, 14.83, -2.08, 43.07, 14.40, 28.50,
100.29039573669434,0.85, 0.03, 0.27, 7.81, 18.43, -9.40, 42.79, 14.58, 31.80,
100.3990592956543,0.98, 0.02, 0.28, 5.07, -2.81, -7.81, 42.32, 15.50, 31.90,
100.5093834400177,1.28, 0.05, 0.26, -2.62, -21.48, -3.85, 43.53, 16.52, 31.90,
100.61916828155518,0.92, -0.19, 0.17, -11.72, -2.38, -10.44, 43.52, 16.93, 27.83,
100.72806692123413,0.98, -0.02, 0.24, -23.93, 14.83, -5.31, 43.46, 18.52, 27.80,
100.83790755271912,0.81, -0.04, 0.28, -1.59, 5.49, 12.51, 43.03, 17.77, 30.22,
100.94782423973083,0.92, -0.11, 0.28, -6.35, 11.60, 7.81, 42.18, 17.53, 31.65,
101.0579023361206,1.25, -0.08, 0.30, -14.04, -14.22, 8.97, 42.07, 17.54, 32.26,
101.16793990135193,0.96, 0.14, 0.20, -6.90, -26.86, 3.36, 42.88, 16.97, 30.30,
101.27814674377441,0.97, 0.13, 0.24, 15.44, 8.30, 9.77, 43.01, 16.21, 28.83,
101.38689017295837,0.80, 0.08, 0.25, 22.46, 23.93, -2.87, 42.38, 15.28, 29.76,
101.4972448348999,0.90, 0.06, 0.29, 15.93, 6.29, -3.36, 41.70, 14.59, 31.63,
101.60648345947266,1.25, 0.03, 0.31, 16.78, -14.95, -9.89, 42.35, 14.45, 31.29,
101.71768689155579,0.94, -0.16, 0.15, -0.12, -45.72, -0.49, 43.70, 14.93, 28.99,
101.82760047912598,0.96, -0.11, 0.22, -24.05, 10.31, -9.64, 43.30, 15.72, 28.30,
101.939293384552,0.80, 0.05, 0.30, -22.46, 17.58, 7.69, 42.59, 16.36, 30.62,
102.04804801940918,0.92, -0.01, 0.31, -14.04, 9.40, 1.22, 42.57, 16.69, 30.92,
102.15813636779785,1.19, 0.02, 0.31, -11.11, -4.21, 7.75, 42.76, 16.31, 30.32,
102.26837301254272,1.07, 0.11, 0.18, -1.16, -37.84, 3.72, 43.51, 16.20, 28.75,
102.37694573402405,1.03, 0.13, 0.23, 30.58, 17.33, 3.91, 44.25, 16.19, 27.27,
102.4871289730072,0.82, -0.02, 0.28, 16.36, 9.83, -2.69, 43.32, 14.67, 27.78,
102.59724426269531,0.78, 0.05, 0.29, 3.54, 8.06, -1.22, 42.76, 14.42, 30.44,
102.70729756355286,1.07, 0.04, 0.36, 2.14, -2.32, -5.86, 41.94, 15.23, 30.32,
102.81569766998291,1.20, -0.04, 0.25, 13.67, -21.12, 4.15, 43.74, 15.11, 29.46,
102.92582082748413,0.95, -0.15, 0.20, -6.71, 1.46, -11.84, 43.88, 15.17, 28.34,
103.03582167625427,0.95, 0.05, 0.26, -14.04, 16.66, -0.24, 43.23, 16.77, 28.42,
103.14559674263,0.78, -0.04, 0.31, -4.88, -5.25, 7.02, 43.51, 15.82, 28.97,
103.25478553771973,0.95, -0.07, 0.31, -10.19, 8.36, 4.15, 42.75, 16.28, 30.66,
103.36538887023926,1.20, -0.12, 0.34, -8.73, -17.09, 4.46, 42.86, 15.42, 30.55,
103.47509431838989,0.85, 0.19, 0.18, 1.34, -21.30, -1.59, 43.88, 16.14, 27.92,
103.58490777015686,1.01, 0.07, 0.25, 23.44, 14.47, 8.42, 44.01, 15.06, 28.23,
103.69436264038086,0.79, 0.05, 0.24, 18.31, 21.85, -5.86, 42.87, 14.47, 30.09,
103.80349898338318,0.87, 0.04, 0.26, 8.85, 2.81, -6.41, 42.16, 14.76, 31.84,
103.91352391242981,1.23, 0.07, 0.30, 11.17, -15.56, -10.44, 42.37, 14.95, 31.73,
104.02338910102844,0.89, -0.15, 0.17, 1.34, -36.13, -3.97, 44.20, 14.65, 28.05,
104.13386750221252,0.99, -0.12, 0.22, -21.12, 11.05, -9.95, 43.95, 15.38, 28.05,
104.24297881126404,0.84, 0.01, 0.28, -18.98, 10.56, 8.36, 43.33, 15.93, 29.21,
104.35365867614746,0.89, -0.03, 0.34, -7.02, 5.92, 8.24, 43.47, 15.97, 30.00,
104.463458776474,1.14, 0.00, 0.34, -14.47, -4.33, 4.09, 43.03, 15.70, 29.99,
104.57410335540771,1.11, 0.11, 0.20, -4.70, -38.76, -0.37, 43.65, 15.92, 28.20,
104.684086561203,1.00, 0.12, 0.19, 19.53, 12.08, 8.06, 43.58, 15.82, 26.07,
104.79292011260986,0.80, 0.01, 0.29, 22.71, 14.59, -2.93, 42.98, 13.55, 27.75,
104.90196061134338,0.87, 0.02, 0.34, 9.77, 10.01, -2.81, 43.14, 13.59, 28.60,
105.01131510734558,1.15, -0.01, 0.33, -3.91, -0.92, -6.23, 43.55, 14.10, 29.86,
105.121173620224,1.15, -0.01, 0.26, -4.39, -27.89, 5.07, 43.73, 14.17, 28.11,
105.22949743270874,0.89, -0.17, 0.28, -21.73, 18.80, -9.34, 44.53, 14.17, 26.44,
105.33901143074036,1.00, 0.02, 0.29, -24.72, 21.61, -9.52, 44.27, 16.22, 29.64,
105.44936156272888,0.79, -0.03, 0.27, -14.40, 10.44, 2.32, 42.76, 17.32, 30.73,
105.56022477149963,0.89, -0.03, 0.23, -9.46, 10.93, 0.61, 42.00, 17.74, 31.70,
105.66847634315491,1.22, -0.13, 0.33, -7.02, -16.48, 6.59, 42.41, 17.97, 31.59,
105.77919101715088,1.01, 0.18, 0.13, 3.60, -14.53, 1.59, 43.42, 17.43, 29.35,
105.88768696784973,0.93, 0.01, 0.19, 19.90, 6.16, 13.18, 43.86, 16.24, 28.60,
105.99673914909363,0.86, 0.05, 0.25, 19.78, 11.05, -6.53, 43.16, 15.14, 30.08,
106.10807013511658,0.83, 0.03, 0.28, 7.81, -3.36, -0.49, 42.82, 15.41, 30.55,
106.21772408485413,1.06, 0.14, 0.32, 12.08, -14.22, -1.46, 43.31, 14.50, 30.42,
106.327800989151,0.91, -0.11, 0.17, -1.53, -26.86, -7.08, 43.93, 14.50, 27.91,
106.43813514709473,1.00, -0.06, 0.20, -22.03, 11.05, -20.20, 44.32, 16.11, 28.09,
106.5479347705841,0.84, 0.00, 0.26, -12.21, 16.66, 1.95, 43.42, 17.58, 29.37,
106.6577799320221,0.86, -0.06, 0.32, -0.49, 13.12, 2.44, 43.15, 17.11, 29.85,
106.76731896400452,0.95, -0.06, 0.31, -6.10, 3.78, 3.30, 42.25, 17.26, 31.58,
106.87655735015869,1.21, -0.10, 0.35, -7.57, -21.06, -6.65, 42.50, 17.94, 31.19,
106.98659014701843,0.94, 0.19, 0.17, 5.68, 15.56, 1.46, 43.02, 17.99, 28.52,
107.0972912311554,0.90, -0.06, 0.18, 23.56, 9.83, 4.21, 42.97, 16.94, 31.21,
107.20715403556824,0.85, 0.02, 0.25, 9.70, 9.46, 0.73, 42.07, 16.53, 32.31,
107.31663870811462,0.86, 0.05, 0.26, 10.93, 3.23, -1.65, 41.89, 15.50, 31.57,
107.4268114566803,1.23, 0.08, 0.31, 4.27, -9.83, -4.64, 42.32, 15.70, 32.62,
107.53711533546448,0.92, -0.17, 0.13, -10.01, -15.69, -2.50, 43.14, 15.75, 30.33,
107.64646673202515,0.96, -0.05, 0.22, -32.59, 18.55, -8.73, 43.31, 17.38, 29.70,
107.75724053382874,0.91, 0.03, 0.22, -15.20, 24.17, 10.07, 42.65, 17.76, 30.83,
107.86614084243774,0.89, -0.01, 0.25, -10.19, 1.83, 9.64, 42.48, 18.31, 31.96,
107.97602319717407,1.06, -0.03, 0.24, -5.13, -20.26, 13.24, 42.35, 17.41, 31.71,
108.08593201637268,1.14, 0.16, 0.22, -2.62, -36.56, -1.04, 43.48, 16.87, 29.70,
108.19590091705322,0.91, 0.09, 0.19, 17.82, 10.74, 10.13, 43.85, 15.70, 28.23,
108.30594062805176,0.83, 0.06, 0.28, 13.06, 11.96, -1.95, 43.05, 14.53, 28.65,
108.41531753540039,0.81, 0.06, 0.35, -1.71, 9.22, -6.96, 42.60, 14.50, 30.10,
108.5251133441925,1.18, 0.09, 0.34, -2.20, 0.24, -12.57, 42.80, 16.08, 31.59,
108.63503932952881,1.15, -0.06, 0.17, 5.80, -35.58, 3.72, 43.37, 16.31, 30.19,
108.74511361122131,0.92, -0.11, 0.20, -12.39, 1.22, -21.85, 44.60, 17.38, 27.95,
108.85497426986694,0.81, 0.02, 0.28, -13.73, 14.53, 2.99, 43.82, 18.59, 28.96,
108.96384263038635,0.88, -0.09, 0.33, -5.43, 3.85, 4.52, 42.83, 18.44, 30.44,
109.0742290019989,0.93, -0.04, 0.31, -9.28, 9.09, 7.32, 42.16, 18.20, 30.87,
109.1836953163147,1.15, -0.06, 0.30, 3.23, -20.75, 8.06, 42.75, 17.21, 30.03,
109.29431056976318,0.91, 0.15, 0.20, 15.14, -3.66, 12.63, 43.38, 16.25, 27.92,
109.40406513214111,0.95, 0.02, 0.26, 24.05, 11.66, 14.10, 43.33, 14.60, 28.55,
109.51307845115662,0.83, 0.07, 0.30, 1.22, 13.06, 2.44, 42.49, 13.64, 28.14,
109.62269711494446,0.83, 0.11, 0.31, -7.08, 2.50, -5.07, 41.87, 13.37, 28.71,
109.73251342773438,1.13, 0.17, 0.32, 2.01, -12.45, -11.05, 41.77, 14.99, 29.80,
109.84176707267761,1.04, -0.07, 0.27, 6.35, -20.26, -4.21, 43.05, 14.23, 28.15,
109.95316863059998,0.93, -0.02, 0.18, -13.67, 3.54, -18.98, 42.98, 16.24, 28.05,
110.06328630447388,0.83, -0.00, 0.31, -13.79, 17.64, 0.61, 42.08, 16.89, 28.52,
110.17273187637329,0.87, -0.01, 0.35, -7.75, -7.87, 1.34, 42.26, 17.20, 28.94,
110.2821455001831,1.10, -0.04, 0.37, -6.10, -11.47, 4.39, 42.27, 17.38, 28.72,
110.39169502258301,1.06, 0.17, 0.27, -4.15, -27.22, 2.75, 42.68, 17.04, 25.70,
110.50079035758972,0.95, 0.10, 0.27, 27.95, 24.35, 8.24, 43.26, 15.31, 28.55,
110.61033320426941,0.84, 0.01, 0.26, 27.77, 20.39, -2.50, 42.57, 15.00, 28.61,
110.72166228294373,0.83, 0.04, 0.26, 16.60, 3.54, -3.42, 42.58, 13.67, 30.20,
110.83136177062988,1.08, 0.11, 0.31, 17.76, -13.49, -9.16, 41.93, 14.39, 31.65,
110.94207715988159,1.01, -0.09, 0.18, -4.58, -35.22, -2.69, 42.85, 13.99, 28.12,
111.0516722202301,0.99, -0.14, 0.22, -12.33, 12.33, -20.57, 43.27, 14.60, 27.05,
111.16169762611389,0.83, 0.02, 0.30, -8.79, 25.33, 4.39, 42.32, 16.19, 29.24,
111.2708113193512,0.84, -0.05, 0.33, -6.41, 2.38, 5.55, 42.55, 16.03, 29.27,
111.37994170188904,1.02, -0.07, 0.30, -12.63, 0.18, 3.23, 42.05, 15.32, 29.88,
111.48974585533142,1.18, -0.06, 0.36, -11.78, -26.55, 2.75, 42.47, 15.38, 28.42,
111.59950995445251,0.94, 0.19, 0.27, 10.19, 0.00, 3.30, 43.08, 15.82, 27.40,
111.70855522155762,0.95, -0.01, 0.31, 26.37, 9.03, 12.45, 42.80, 14.72, 25.88,
111.81805181503296,0.80, 0.05, 0.31, 13.06, 11.72, 2.87, 41.59, 13.15, 27.98,
111.9278724193573,0.82, 0.07, 0.32, 1.77, -1.53, -5.49, 41.86, 12.87, 28.83,
112.03846454620361,1.12, 0.20, 0.43, 3.17, -19.78, -7.51, 42.72, 13.79, 27.77,
112.14797854423523,0.88, -0.21, 0.25, -8.97, -3.48, -7.69, 43.16, 13.85, 25.68,
112.25708150863647,0.98, 0.05, 0.27, -30.82, 11.11, -15.32, 42.71, 15.22, 27.09,
112.36645674705505,0.83, 0.01, 0.31, -14.28, 10.68, 6.90, 42.54, 15.80, 28.25,
112.47554469108582,0.83, -0.06, 0.31, -12.02, 6.59, 6.59, 42.21, 15.92, 28.21,
112.58443713188171,1.15, -0.03, 0.38, -11.47, -23.68, 1.65, 42.40, 16.17, 27.93,
112.69537568092346,0.97, 0.21, 0.23, 3.42, -28.99, -5.92, 42.79, 16.59, 25.44,
112.80578184127808,1.01, -0.01, 0.30, 23.25, 13.43, 13.12, 42.52, 15.76, 26.61,
112.9160647392273,0.79, 0.04, 0.34, 22.16, 15.81, -0.55, 42.14, 14.62, 27.71,
113.02561950683594,0.83, 0.05, 0.32, 18.55, 7.14, -0.12, 42.47, 13.23, 28.26,
113.13586330413818,1.11, 0.17, 0.39, 9.52, -16.85, -6.04, 41.56, 13.75, 28.33,
113.24685192108154,0.89, -0.19, 0.24, 4.09, -17.64, -8.36, 43.13, 13.73, 26.22,
113.35710072517395,1.02, -0.09, 0.29, -14.16, 13.85, -19.84, 42.57, 15.53, 26.07,
113.46787190437317,0.73, 0.03, 0.30, -5.37, 15.14, 5.98, 41.83, 15.64, 28.10,
113.5776526927948,0.83, -0.07, 0.34, -2.69, 4.03, 7.63, 42.04, 15.32, 28.86,
113.68710708618164,1.18, -0.08, 0.39, -13.18, -22.89, 2.93, 41.61, 15.37, 30.18,
113.79629492759705,1.03, 0.11, 0.27, -12.57, -27.53, 2.93, 41.85, 15.92, 27.11,
113.90699338912964,0.96, 0.15, 0.29, 5.31, 13.24, 16.66, 42.88, 15.23, 25.99,
114.01683759689331,0.87, 0.04, 0.36, 16.42, 12.33, -1.89, 41.78, 13.32, 28.87,
114.12662267684937,0.76, 0.04, 0.33, 8.30, 8.24, -0.49, 41.31, 13.56, 27.88,
114.23696327209473,1.15, 0.07, 0.41, 0.00, -9.03, -5.80, 41.59, 13.28, 29.39,
114.34540891647339,1.06, -0.01, 0.36, 3.78, -33.81, -1.65, 41.67, 13.79, 29.31,
114.45600700378418,0.97, -0.08, 0.25, -15.32, 5.80, -17.03, 42.54, 14.87, 25.60,
114.56569933891296,0.84, 0.04, 0.28, -9.64, 18.55, -1.53, 42.21, 16.04, 26.20,
114.67526650428772,0.79, -0.04, 0.34, -1.22, 8.12, 8.54, 41.78, 15.26, 29.32,
114.78470826148987,0.93, -0.08, 0.33, -9.28, 4.76, 0.61, 41.87, 15.22, 29.59,
114.89487266540527,1.13, -0.08, 0.40, -8.24, -23.86, -2.50, 41.93, 15.89, 28.42,
115.00496768951416,0.91, 0.23, 0.26, 5.49, 8.12, 4.58, 42.68, 15.89, 26.09,
115.11438941955566,0.94, -0.00, 0.32, 22.89, 13.43, 10.31, 42.25, 14.97, 26.45,
115.22482252120972,0.79, 0.08, 0.34, 14.53, 17.52, -5.31, 41.93, 14.16, 27.38,
115.33535432815552,0.80, 0.04, 0.33, 4.76, 6.53, -7.87, 41.09, 14.45, 29.28,
115.4446804523468,1.15, 0.19, 0.41, 1.22, -16.60, -6.90, 41.86, 15.64, 29.03,
115.55556893348694,0.89, -0.21, 0.21, 1.28, -13.12, -11.05, 42.25, 15.38, 26.67,
115.66606402397156,1.02, -0.02, 0.32, -17.46, 14.47, -12.63, 42.30, 17.05, 26.94,
115.7755057811737,0.75, 0.03, 0.31, -0.73, 17.94, 11.72, 42.13, 17.22, 27.87,
115.88490343093872,0.79, -0.04, 0.34, -3.60, 8.30, 9.52, 41.49, 15.63, 29.14,
115.99547863006592,1.17, -0.06, 0.39, -13.31, -10.56, 7.14, 41.77, 14.94, 29.53,
116.10520625114441,1.02, 0.16, 0.25, -13.49, -21.67, 7.20, 42.32, 14.99, 28.27,
116.21616435050964,0.97, 0.18, 0.26, 10.01, 15.26, 13.43, 42.09, 14.26, 28.17,
116.32421660423279,0.80, 0.08, 0.29, 13.73, 15.01, -7.93, 41.28, 13.56, 28.61,
116.43477296829224,0.83, 0.09, 0.32, 13.12, 7.14, -2.50, 41.13, 13.82, 29.08,
116.5447359085083,1.15, 0.04, 0.38, 7.45, -6.47, -10.38, 41.02, 13.71, 30.27,
116.6550030708313,1.11, -0.07, 0.25, 1.46, -28.20, -2.56, 41.82, 14.73, 28.80,
116.76625895500183,0.95, -0.17, 0.23, -20.14, 11.54, -21.42, 41.80, 15.54, 27.97,
116.87710642814636,0.83, 0.08, 0.31, -21.91, 10.13, -8.06, 41.67, 17.59, 27.73,
116.98778891563416,0.82, -0.08, 0.35, -0.92, 10.68, 9.16, 41.37, 16.91, 29.50,
117.09775352478027,0.94, -0.10, 0.34, -9.28, 1.40, 3.78, 40.76, 17.08, 28.85,
117.20789980888367,1.08, -0.07, 0.36, -13.55, -25.57, 7.87, 41.75, 16.48, 28.26,
117.3172025680542,0.91, 0.22, 0.29, 2.87, 8.97, 9.77, 42.64, 15.98, 25.43,
117.42718148231506,0.89, 0.00, 0.34, 19.10, 7.20, 3.60, 41.46, 14.81, 26.83,
117.53555607795715,0.78, 0.06, 0.33, 7.08, 9.70, -3.78, 41.91, 14.58, 26.86,
117.64585590362549,0.89, 0.07, 0.38, 5.49, 3.54, -2.87, 41.56, 14.25, 26.40,
117.75438952445984,1.16, 0.16, 0.45, -0.49, -6.41, -0.31, 41.97, 15.16, 27.06,
117.86444091796875,0.95, -0.23, 0.23, -7.32, -0.06, -14.89, 42.94, 14.73, 24.91,
117.9746572971344,1.05, -0.01, 0.36, -23.13, 16.05, -17.03, 42.50, 16.59, 24.82,
118.0841715335846,0.72, 0.01, 0.31, 1.34, 17.70, 17.64, 42.04, 18.04, 26.25,
118.19307541847229,0.80, -0.09, 0.37, -6.65, 11.41, 10.19, 41.61, 16.05, 28.76,
118.30198073387146,1.19, -0.05, 0.44, -17.88, -8.36, 3.91, 42.19, 16.44, 28.05,
118.4122064113617,1.08, 0.11, 0.30, -3.66, -29.24, 2.14, 42.31, 16.39, 26.38,
118.52196407318115,0.95, 0.14, 0.29, 15.14, 19.53, 13.55, 42.83, 16.11, 26.66,
118.63034701347351,0.85, 0.04, 0.29, 20.26, 18.49, -0.24, 41.82, 14.70, 27.72,
118.7394814491272,0.79, 0.05, 0.30, 16.48, -3.78, -2.50, 41.26, 14.32, 28.65,
118.84956955909729,1.08, 0.07, 0.42, 12.15, -20.63, -4.27, 41.66, 14.33, 28.41,
118.95994353294373,0.93, -0.13, 0.32, -6.23, -18.98, -2.44, 42.61, 13.94, 26.18,
119.06996655464172,1.00, -0.12, 0.28, -26.92, 5.98, -16.60, 42.19, 15.15, 26.93,
119.17989563941956,0.74, 0.09, 0.30, -22.71, 16.30, 4.58, 42.90, 16.66, 27.12,
119.28904843330383,0.85, -0.02, 0.36, -18.31, 3.91, 5.74, 42.00, 16.75, 26.11,
119.39755249023438,1.12, 0.00, 0.40, -1.10, -8.30, 11.66, 42.25, 16.11, 25.92,
119.50851964950562,1.11, 0.12, 0.32, 8.24, -28.87, 6.59, 42.71, 15.98, 25.60,
119.61736488342285,0.90, 0.16, 0.31, 24.78, 10.01, 18.25, 42.86, 13.99, 25.27,
119.72672414779663,0.73, 0.10, 0.32, 29.48, 21.24, 0.12, 42.61, 12.73, 25.29,
119.83650517463684,0.82, 0.08, 0.38, 15.01, 16.05, -5.43, 41.91, 12.23, 27.31,
119.94607353210449,1.20, -0.01, 0.36, -1.71, 4.33, -11.05, 41.37, 13.09, 28.32,
120.05537724494934,1.11, -0.14, 0.23, -12.70, -26.25, -7.26, 42.16, 14.21, 28.36,
120.16584014892578,0.99, -0.11, 0.22, -22.71, 8.61, -13.92, 43.32, 15.83, 28.11,
120.27577042579651,0.84, 0.08, 0.28, -15.01, 23.86, 2.81, 42.94, 17.11, 27.70,
120.38534283638,0.85, -0.03, 0.31, -8.24, 1.04, 10.19, 42.21, 16.19, 28.72,
120.4967029094696,1.13, 0.01, 0.37, -0.12, -16.24, 14.34, 42.40, 15.60, 28.71,
120.60877442359924,1.11, 0.11, 0.23, 10.13, -25.02, 7.45, 42.41, 14.48, 26.90,
120.71812629699707,0.89, 0.17, 0.28, 16.60, 6.71, 10.93, 42.87, 13.10, 26.72,
120.82742476463318,0.78, 0.10, 0.28, 22.16, 16.72, -2.69, 42.30, 12.13, 26.98,
120.93795585632324,0.89, 0.08, 0.34, 7.93, 7.02, -4.88, 42.10, 12.30, 28.64,
121.04667115211487,1.12, 0.03, 0.40, -8.18, -2.32, -8.36, 42.64, 12.66, 28.88,
121.15757727622986,1.10, -0.08, 0.23, -6.29, -31.37, -7.81, 43.31, 13.51, 27.33,
121.26796174049377,0.98, -0.13, 0.23, -22.46, 13.00, -20.94, 43.36, 15.33, 27.49,
121.37785196304321,0.76, 0.03, 0.26, -23.44, 19.53, 3.91, 42.82, 16.54, 28.42,
121.48660945892334,0.89, -0.07, 0.34, -17.40, 0.85, 6.96, 42.25, 17.15, 29.31,
121.59523630142212,1.08, 0.02, 0.37, -7.93, -8.67, 11.29, 42.10, 16.82, 30.22,
121.70540189743042,1.08, 0.10, 0.28, 5.00, -19.47, 4.52, 42.87, 15.50, 27.01,
121.81545877456665,0.99, 0.17, 0.23, 17.15, 13.43, 11.47, 42.53, 14.98, 27.33,
121.92405223846436,0.83, 0.09, 0.26, 25.09, 14.10, 2.81, 42.83, 13.28, 28.31,
122.03421783447266,0.82, 0.07, 0.30, 10.13, 8.42, -4.21, 42.31, 12.68, 29.26,
122.14405536651611,1.17, 0.03, 0.39, 1.40, -4.94, -9.70, 42.26, 12.96, 30.35,
122.25273060798645,1.14, -0.06, 0.23, -7.63, -37.72, -4.21, 43.08, 14.17, 30.43,
122.36270999908447,0.98, -0.16, 0.21, -24.84, 5.86, -19.65, 43.13, 14.76, 27.47,
122.47393894195557,0.81, 0.06, 0.25, -14.77, 16.30, -3.30, 43.10, 17.35, 28.44,
122.58404064178467,0.89, -0.05, 0.30, -9.64, 2.50, 6.47, 42.77, 16.77, 28.81,
122.6939287185669,1.05, -0.03, 0.36, -7.51, -5.68, 5.55, 42.65, 16.64, 29.02,
122.80513143539429,1.06, 0.03, 0.28, 6.84, -35.40, 4.33, 43.33, 16.60, 28.94,
122.91484093666077,0.98, 0.15, 0.26, 19.53, 8.91, 10.74, 44.04, 15.97, 25.95,
123.02448177337646,0.81, 0.04, 0.31, 29.36, 13.18, 0.73, 43.77, 13.90, 27.64,
123.13475227355957,0.81, 0.02, 0.33, 11.41, 10.44, -1.65, 42.91, 13.18, 30.15,
123.24480390548706,1.06, -0.01, 0.39, -2.26, 0.49, -10.99, 43.07, 14.29, 29.02,
123.35440325737,1.10, -0.06, 0.25, -12.21, -24.96, -5.92, 43.69, 15.16, 28.92,
123.46471834182739,0.96, -0.18, 0.19, -24.11, 11.29, -21.36, 43.81, 16.61, 26.23,
123.57428169250488,0.86, 0.05, 0.27, -21.30, 12.45, 0.31, 43.59, 18.07, 27.70,
123.68414068222046,0.80, -0.08, 0.36, -5.43, 6.23, 14.10, 43.86, 18.05, 28.39,
123.79367733001709,1.01, -0.07, 0.32, -10.31, 9.16, 5.49, 43.08, 16.72, 29.66,
123.90352964401245,1.12, -0.07, 0.31, -3.60, -28.87, 7.32, 43.60, 16.89, 28.17,
124.01315760612488,0.88, 0.14, 0.18, 17.15, -4.88, 3.97, 44.56, 16.14, 26.94,
124.12244319915771,0.93, 0.04, 0.29, 26.61, 11.84, 9.77, 43.71, 14.61, 27.47,
124.23190546035767,0.79, 0.05, 0.29, 18.25, 15.93, -1.16, 43.07, 14.12, 28.80,
124.34187602996826,0.89, 0.05, 0.31, 8.85, 5.31, -7.26, 42.82, 13.85, 29.30,
124.45068383216858,1.21, 0.11, 0.33, -6.29, -12.02, -10.74, 43.52, 14.56, 30.93,
124.56217861175537,0.92, -0.15, 0.19, -17.27, -2.50, -21.48, 43.98, 15.86, 26.87,
124.67189002037048,0.97, -0.02, 0.26, -26.73, 6.29, -10.80, 43.99, 17.55, 27.05,
124.78210353851318,0.82, -0.06, 0.31, -5.43, 19.29, 12.27, 43.49, 17.75, 28.72,
124.89175748825073,0.87, -0.08, 0.35, -4.46, 2.14, 9.40, 43.01, 17.60, 29.09,
125.00167441368103,1.22, -0.04, 0.37, -4.03, -10.01, 6.77, 43.35, 17.47, 29.54,
125.11129093170166,1.02, 0.20, 0.25, 3.85, -18.74, 6.04, 43.97, 17.44, 27.26,
125.2203311920166,0.93, 0.11, 0.25, 28.81, 13.24, 14.95, 43.14, 14.49, 28.04,
125.33011293411255,0.76, 0.03, 0.28, 26.55, 22.22, 3.72, 42.92, 13.12, 28.43,
125.43937373161316,0.87, 0.02, 0.28, 7.93, 8.24, -4.82, 42.93, 12.76, 30.19,
125.55000424385071,1.17, 0.09, 0.33, -4.52, -13.49, -16.42, 43.33, 13.78, 29.31,
125.65930128097534,0.95, -0.13, 0.18, -20.87, -27.16, -16.91, 43.81, 15.17, 27.60,
125.77012705802917,1.02, -0.08, 0.24, -31.62, 4.46, -19.71, 43.95, 17.09, 27.89,
125.87957549095154,0.80, 0.04, 0.27, -5.55, 17.46, 10.99, 43.53, 18.70, 27.60,
125.9884774684906,0.90, -0.12, 0.35, -5.07, 5.43, 7.87, 42.35, 17.31, 29.55,
126.09909296035767,1.16, -0.02, 0.35, -9.95, -10.50, 11.66, 43.24, 17.55, 29.91,
126.20849370956421,1.19, 0.13, 0.26, 1.34, -29.60, 9.28, 43.85, 16.33, 26.97,
126.3184564113617,0.94, 0.12, 0.24, 21.06, 7.20, 11.29, 44.02, 14.93, 26.95,
126.42764234542847,0.82, 0.06, 0.28, 25.63, 13.85, -1.95, 43.98, 13.90, 26.93,
126.53701996803284,0.83, 0.02, 0.38, 9.03, 13.31, 2.81, 43.01, 12.68, 28.52,
126.6459686756134,1.08, 0.04, 0.35, -5.68, 6.96, -7.20, 42.44, 13.12, 30.75,
126.75494241714478,1.19, -0.06, 0.23, -12.27, -14.28, -7.81, 43.16, 14.55, 30.10,
126.86570715904236,0.90, -0.13, 0.16, -17.82, 5.37, -22.58, 42.97, 15.80, 28.23,
126.97450947761536,0.93, 0.04, 0.26, -18.37, 8.12, -2.69, 42.83, 17.52, 29.19,
127.08327150344849,0.81, -0.05, 0.32, -1.59, -0.37, 9.09, 42.19, 16.85, 29.92,
127.19359993934631,0.87, -0.09, 0.33, -5.43, 1.95, 8.12, 42.80, 16.69, 29.63,
127.30468583106995,1.12, -0.08, 0.42, -13.67, -17.27, 5.13, 42.86, 16.64, 29.49,
127.41481018066406,0.89, 0.21, 0.22, 0.73, -25.02, -2.69, 43.08, 16.72, 26.34,
127.52453756332397,0.96, 0.02, 0.28, 22.03, 18.68, 8.48, 43.25, 15.66, 27.19,
127.63514924049377,0.84, 0.03, 0.29, 19.71, 23.07, -5.37, 42.80, 15.15, 30.00,
127.74494647979736,0.82, 0.03, 0.28, 8.61, 3.48, -1.28, 42.09, 15.11, 30.90,
127.85488843917847,1.19, 0.11, 0.31, 0.55, -9.34, -3.66, 42.42, 14.97, 31.49,
127.96494960784912,0.95, -0.18, 0.19, -17.64, -8.79, -1.04, 42.70, 15.19, 29.10,
128.0748736858368,0.99, 0.04, 0.23, -29.60, 4.03, -17.27, 42.52, 17.10, 29.05,
128.18616247177124,0.78, -0.01, 0.27, -10.25, 12.08, 5.25, 43.02, 17.59, 28.86,
128.29510712623596,0.89, -0.01, 0.35, -3.23, 4.94, 11.29, 42.88, 16.43, 30.36,
128.40458226203918,1.12, -0.01, 0.39, -5.49, -13.98, 7.51, 42.25, 16.14, 29.68,
128.5150110721588,1.08, 0.06, 0.27, -3.54, -26.92, -10.93, 42.92, 16.71, 28.12,
128.62460279464722,1.05, 0.11, 0.23, 15.26, 13.61, 2.38, 42.81, 17.19, 27.04,
128.73352646827698,0.83, 0.06, 0.26, 27.71, 15.99, 2.32, 42.87, 16.47, 29.03,
128.84244060516357,0.85, 0.00, 0.29, 17.94, 6.35, -4.09, 41.58, 15.26, 30.66,
128.9523847103119,1.15, 0.00, 0.37, 17.88, -3.30, 1.65, 42.07, 15.43, 30.09,
129.0621337890625,1.11, -0.06, 0.25, 11.11, -17.76, 14.40, 42.93, 13.67, 29.77,
129.17146348953247,0.96, -0.14, 0.19, -18.31, 1.71, -10.13, 43.52, 13.16, 28.52,
129.2820746898651,0.98, 0.00, 0.29, -31.92, 11.23, -6.10, 42.87, 14.65, 28.98,
129.39188694953918,0.80, 0.03, 0.30, -16.85, 4.88, 5.68, 42.55, 15.87, 29.38,
129.50076985359192,0.83, -0.04, 0.32, -8.12, 2.75, 5.92, 41.94, 15.61, 29.71,
129.61035346984863,1.18, -0.06, 0.39, -2.81, -13.98, 0.55, 41.92, 15.66, 28.97,
129.72075176239014,0.96, 0.23, 0.20, 18.37, -24.35, 3.23, 43.42, 15.84, 26.46,
129.83074307441711,0.90, -0.00, 0.27, 26.49, 19.96, 12.45, 43.30, 13.64, 26.64,
129.940749168396,0.85, 0.09, 0.29, 16.36, 20.02, -3.17, 42.72, 12.34, 28.27,
130.05032873153687,0.81, 0.04, 0.29, 9.16, 2.20, -3.23, 41.85, 12.48, 29.50,
130.1604859828949,1.16, 0.16, 0.33, 3.72, -13.43, -10.19, 42.25, 13.35, 30.13,
130.2703447341919,0.91, -0.15, 0.17, -13.00, -14.53, -6.10, 43.30, 13.10, 28.27,
130.38046193122864,0.96, -0.04, 0.22, -34.36, 11.47, -23.68, 43.38, 15.36, 27.72,
130.49061679840088,0.83, 0.01, 0.28, -15.56, 10.19, 4.46, 41.97, 17.05, 28.65,
130.59932255744934,0.83, -0.01, 0.30, -7.45, 4.76, -0.67, 41.86, 17.18, 29.37,
130.7097465991974,1.12, -0.05, 0.35, -8.06, -13.06, -1.10, 41.61, 17.37, 29.86,
130.81958889961243,1.09, 0.09, 0.24, -4.76, -32.71, 8.12, 42.14, 17.44, 29.03,
130.9299213886261,1.03, 0.14, 0.23, 19.41, 9.64, 11.78, 42.41, 16.35, 28.88,
131.03814315795898,0.85, 0.01, 0.28, 23.07, 11.84, 6.10, 42.21, 14.84, 28.39,
131.14798617362976,0.78, 0.05, 0.31, 6.53, 6.84, -0.43, 41.30, 14.42, 29.77,
131.25743222236633,1.11, 0.06, 0.37, -5.49, 5.25, -11.23, 41.33, 14.15, 29.36,
131.3669307231903,1.19, -0.01, 0.33, -0.98, -13.43, -0.73, 41.99, 15.63, 30.29,
131.47544646263123,0.96, -0.05, 0.19, -15.38, -0.49, -10.93, 42.02, 16.33, 28.78,
131.58522987365723,0.99, 0.06, 0.29, -25.21, 1.46, -3.42, 42.33, 17.71, 28.65,
131.69424605369568,0.79, 0.01, 0.30, -5.62, 13.06, 5.92, 41.65, 17.14, 28.41,
131.8041718006134,0.81, -0.05, 0.32, -3.97, 13.67, 2.87, 41.46, 17.09, 29.57,
131.9132421016693,1.25, -0.10, 0.35, -6.41, -7.26, 12.27, 40.80, 16.42, 29.61,
132.02416610717773,0.93, 0.23, 0.22, 9.09, -29.72, 7.51, 41.88, 16.22, 27.67,
132.1325798034668,0.93, 0.10, 0.26, 21.30, 15.56, 9.89, 42.19, 14.87, 27.73,
132.2437195777893,0.84, 0.09, 0.29, 21.85, 22.46, -6.47, 41.64, 14.05, 28.31,
132.35269117355347,0.83, 0.02, 0.29, 13.06, 13.12, -13.43, 40.76, 14.33, 31.80,
132.46139669418335,1.23, 0.09, 0.29, 10.93, -12.39, -22.71, 40.80, 15.30, 32.09,
132.57210850715637,0.95, -0.22, 0.17, -3.42, -43.82, -11.05, 42.33, 16.26, 28.27,
132.6817648410797,0.99, -0.14, 0.20, -15.56, 6.65, -12.08, 42.38, 18.38, 27.77,
132.79177737236023,0.80, -0.04, 0.25, -7.75, 15.99, 13.55, 42.02, 18.27, 28.32,
132.90181303024292,0.79, -0.11, 0.33, 4.33, -2.87, 6.35, 42.09, 17.08, 30.19,
133.01196360588074,1.00, -0.12, 0.34, -5.92, 8.36, 5.55, 41.35, 17.11, 31.08,
133.12125086784363,1.18, -0.03, 0.29, -12.21, -28.63, 12.15, 41.31, 16.28, 30.11,
133.2310333251953,0.87, 0.15, 0.16, 3.11, 1.04, 8.48, 41.91, 15.76, 28.11,
133.340660572052,0.92, 0.06, 0.27, 14.22, 9.58, 0.18, 41.67, 14.92, 28.31,
133.45041680335999,0.79, 0.05, 0.29, 6.29, 19.29, -5.43, 41.05, 14.43, 28.66,
133.5598542690277,0.87, 0.04, 0.30, 8.36, 6.59, -9.46, 40.80, 14.78, 30.66,
133.668860912323,1.24, 0.09, 0.30, 9.28, -15.08, -10.25, 41.22, 15.54, 31.26,
133.77872109413147,0.95, -0.25, 0.10, 0.12, -12.21, -16.11, 42.30, 16.19, 28.58,
133.88873887062073,0.94, -0.05, 0.25, -32.96, 6.71, -11.11, 41.58, 17.90, 28.04,
133.99870610237122,0.85, 0.01, 0.29, -17.58, 16.11, 9.83, 41.61, 18.42, 29.06,
134.1071035861969,0.83, -0.06, 0.36, -2.87, 2.69, 10.38, 41.67, 18.21, 30.13,
134.21640157699585,1.26, -0.05, 0.41, -8.61, -4.27, 11.23, 40.99, 17.27, 29.75,
134.32660341262817,1.09, 0.13, 0.20, -2.87, -28.87, 5.62, 42.43, 17.08, 28.93,
134.43544173240662,0.97, 0.08, 0.24, 14.95, 1.53, 4.03, 42.74, 16.19, 27.87,
134.54590821266174,0.74, 0.02, 0.28, 12.15, 11.60, -7.93, 41.74, 15.61, 28.52,
134.65578603744507,0.82, 0.04, 0.40, 6.10, 20.39, -4.52, 41.58, 16.11, 29.75,
134.76568913459778,1.22, -0.03, 0.41, 8.61, 0.61, -8.30, 41.02, 16.20, 31.09,
134.87519550323486,1.17, -0.13, 0.17, 5.92, -28.93, -0.37, 41.74, 16.89, 30.98,
134.9845368862152,0.95, -0.18, 0.18, -18.49, -4.70, -10.62, 42.57, 17.22, 28.30,
135.09417343139648,0.83, 0.03, 0.24, -17.33, 10.13, 2.20, 42.47, 17.92, 26.89,
135.20470476150513,0.84, -0.08, 0.35, -2.44, 25.27, 15.69, 41.50, 16.86, 29.64,
135.31318712234497,0.94, -0.10, 0.32, -11.78, 9.89, 2.93, 41.89, 16.54, 30.07,
135.4239957332611,1.19, -0.09, 0.33, -14.22, -25.63, 5.31, 41.72, 17.13, 30.32,
135.53321528434753,0.85, 0.16, 0.16, 0.85, -13.00, 4.58, 42.44, 17.10, 26.59,
135.64325881004333,0.91, 0.03, 0.28, 18.98, 6.29, 3.48, 42.52, 16.05, 26.78,
135.75294065475464,0.75, 0.06, 0.32, 10.68, 22.58, -5.37, 42.20, 15.86, 28.37,
135.861989736557,0.86, -0.01, 0.29, -2.75, 14.95, -6.16, 40.92, 16.25, 30.60,
135.9714241027832,1.24, 0.14, 0.29, -10.80, -17.33, -12.76, 41.08, 17.97, 30.91,
136.08142471313477,0.88, -0.17, 0.17, -9.64, -15.01, -12.88, 41.82, 18.55, 27.97,
136.19209384918213,1.02, -0.03, 0.24, -17.33, 8.54, -13.98, 41.92, 19.76, 28.05,
136.300790309906,0.75, -0.06, 0.31, -6.71, 20.63, 16.78, 41.38, 19.86, 28.20,
136.41000485420227,0.83, -0.08, 0.37, -11.90, 11.66, 6.53, 41.09, 19.07, 27.92,
136.52050685882568,1.25, -0.03, 0.36, -29.36, -6.23, 8.42, 41.41, 19.41, 28.91,
136.63009929656982,1.06, 0.13, 0.24, -33.20, -28.69, -0.92, 40.94, 19.84, 27.99,
136.74097967147827,0.99, 0.20, 0.20, 7.51, 4.03, 3.48, 41.17, 19.13, 26.01,
136.85059881210327,0.83, 0.13, 0.28, 26.31, 6.90, 8.18, 41.30, 18.41, 27.00,
136.96013379096985,0.77, 0.13, 0.32, 18.37, 13.49, -3.42, 40.80, 17.14, 28.05,
137.0707652568817,1.18, 0.14, 0.39, 16.30, 1.89, -18.07, 40.99, 17.83, 29.53,
137.18125462532043,1.04, -0.02, 0.30, 28.44, -33.08, -2.56, 41.27, 19.02, 28.52,
137.29022812843323,0.83, -0.13, 0.18, 11.35, 2.56, -15.08, 42.30, 18.32, 27.34,
137.4010751247406,1.04, -0.08, 0.32, 4.27, 13.00, -4.09, 41.77, 18.42, 28.20,
137.5104284286499,0.69, -0.05, 0.29, -0.12, 21.00, 6.23, 41.39, 18.29, 29.58,
137.62014722824097,0.87, -0.18, 0.28, -5.19, 6.35, 8.24, 40.98, 17.96, 30.24,
137.7308852672577,1.27, -0.11, 0.41, -29.05, -9.34, 12.57, 40.14, 17.32, 30.00,
137.84097838401794,0.85, 0.14, 0.16, -3.17, -22.77, -5.31, 41.09, 17.72, 27.80,
137.95101499557495,0.95, 0.05, 0.23, 14.16, 3.36, -1.77, 41.70, 18.38, 28.83,
138.0606985092163,0.83, 0.09, 0.29, 19.23, 23.25, -7.26, 40.84, 17.65, 30.41,
138.17007851600647,0.86, -0.05, 0.25, 33.14, 14.04, -6.59, 40.42, 17.24, 32.34,
138.2805678844452,1.17, -0.07, 0.33, -4.70, -23.93, -16.24, 40.38, 17.60, 31.08,
138.39156460762024,0.93, -0.30, 0.17, -44.86, -27.47, -16.42, 41.55, 19.93, 30.03,
138.50093340873718,1.04, -0.07, 0.18, -35.40, 9.58, -20.69, 41.04, 22.07, 27.72,
138.61239194869995,0.72, -0.06, 0.31, -0.31, 25.09, 28.14, 41.09, 22.91, 28.49,
138.72259998321533,0.85, -0.17, 0.35, 0.73, 2.20, 14.40, 40.21, 20.76, 30.73,
138.83460760116577,1.21, -0.04, 0.34, -29.11, -1.71, 2.99, 40.31, 21.41, 31.18,
138.9442856311798,1.13, 0.05, 0.18, -22.83, -25.63, 2.87, 40.67, 21.47, 29.03,
139.05445289611816,0.90, 0.12, 0.14, 6.35, 3.11, 1.28, 41.14, 21.33, 28.20,
139.16444611549377,0.84, 0.04, 0.28, 19.04, 4.39, 9.40, 40.83, 20.36, 27.91,
139.2742519378662,0.81, 0.10, 0.30, 10.86, 26.98, -2.20, 40.80, 19.63, 30.16,
139.38343572616577,1.14, 0.05, 0.27, 8.85, 9.03, -11.54, 39.89, 19.59, 33.37,
139.4940893650055,1.33, -0.20, 0.12, 10.99, -19.47, -10.50, 40.58, 20.72, 31.70,
139.60593843460083,0.89, -0.09, 0.08, -12.39, 9.03, -6.71, 41.09, 21.08, 31.96,
139.71522545814514,0.97, -0.01, 0.15, -0.79, 3.78, 18.37, 40.39, 21.58, 31.76,
139.8263645172119,0.84, -0.05, 0.24, 3.17, 7.63, 8.36, 40.43, 20.08, 31.45,
139.9356987476349,0.81, -0.06, 0.22, 8.79, 5.25, 9.58, 40.21, 19.02, 32.23,
140.04591155052185,1.21, -0.20, 0.26, -17.58, -24.48, 0.79, 40.69, 17.90, 32.15,
140.1554296016693,0.93, 0.26, 0.14, 6.16, -5.13, 16.97, 41.63, 18.76, 29.82,
140.26411747932434,0.91, -0.05, 0.16, 36.13, 8.73, -1.40, 41.55, 16.39, 30.76,
140.37472200393677,0.89, -0.05, 0.19, 11.29, 17.33, -3.78, 40.71, 15.00, 32.97,
140.48495221138,0.78, 0.21, 0.39, 12.15, 3.11, -8.67, 40.47, 15.98, 32.45,
140.59363079071045,1.26, -0.00, 0.21, 7.14, -20.87, -1.22, 40.56, 15.39, 32.03,
140.70205092430115,0.95, -0.20, 0.08, -15.93, -7.69, -16.85, 41.60, 15.81, 31.05,
140.8127956390381,1.00, 0.01, 0.24, -24.54, 2.01, -5.55, 41.38, 18.41, 29.72,
140.92290830612183,0.80, -0.00, 0.27, -6.77, 6.96, 10.13, 41.25, 17.71, 30.07,
141.03202390670776,0.90, -0.08, 0.30, -25.39, 32.84, -4.94, 40.69, 17.99, 30.60,
141.1424069404602,1.22, -0.02, 0.25, -21.48, -17.46, -1.10, 39.75, 20.32, 31.99,
141.25243163108826,1.25, 0.13, 0.17, -3.72, -18.25, 13.85, 40.54, 20.62, 30.29,
141.3624050617218,0.94, 0.15, 0.12, 31.98, 2.62, 5.74, 41.02, 18.70, 29.97,
141.47292232513428,0.83, -0.06, 0.30, 12.27, 10.74, 0.06, 40.84, 16.36, 30.54,
141.58199763298035,0.82, 0.11, 0.31, 5.25, -0.24, -4.64, 40.61, 16.64, 30.81,
141.69161105155945,1.12, 0.10, 0.30, -1.71, -1.16, -5.92, 40.84, 18.36, 31.27,
141.80186104774475,1.11, -0.16, 0.18, -2.26, -29.79, 14.83, 41.63, 17.74, 29.68,
141.91113805770874,0.99, -0.15, 0.19, -21.06, 8.48, -23.01, 41.66, 17.93, 29.27,
142.02118492126465,0.93, 0.15, 0.24, -8.54, 3.60, 11.72, 41.76, 20.72, 29.10,
142.13016891479492,0.74, -0.11, 0.27, 8.97, 14.28, 6.10, 40.83, 18.76, 32.98,
142.23927569389343,0.90, -0.07, 0.23, 0.06, 5.62, -2.75, 40.23, 18.88, 31.75,
142.3496973514557,1.21, -0.06, 0.33, -12.15, -12.08, 8.12, 40.58, 18.76, 32.73,
142.45908546447754,0.86, 0.10, 0.06, 12.15, -9.83, 3.91, 41.37, 18.40, 29.87,
142.56992077827454,0.93, -0.02, 0.20, 27.28, 2.20, 4.39, 41.04, 17.14, 30.20,
142.67848372459412,0.80, 0.18, 0.29, 13.37, 10.93, -6.53, 41.14, 17.65, 31.29,
142.7883768081665,0.89, -0.02, 0.24, 4.27, 3.05, -7.93, 40.50, 16.88, 31.54,
142.89741230010986,1.17, 0.07, 0.33, -8.00, -10.13, -7.81, 41.00, 17.83, 30.30,
143.00715494155884,0.87, -0.17, 0.15, -9.83, -10.62, 6.10, 41.81, 18.38, 28.74,
143.11723351478577,0.92, 0.04, 0.22, -22.09, 14.59, -4.58, 41.38, 18.25, 29.87,
143.22764539718628,0.88, -0.01, 0.25, -17.64, 15.93, 2.56, 40.86, 18.24, 30.55,
143.3376362323761,0.98, 0.10, 0.37, -7.81, 1.10, 7.45, 40.25, 19.08, 33.17,
143.44663524627686,1.13, -0.02, 0.29, 2.75, -16.54, 9.16, 40.91, 18.33, 31.86,
143.55727887153625,1.00, 0.16, 0.20, 1.16, -37.54, -10.80, 42.22, 18.24, 29.14,
143.66773557662964,1.03, 0.18, 0.23, 17.27, 18.37, 6.77, 41.46, 17.44, 28.66,
143.7769160270691,0.73, 0.04, 0.22, 15.50, 19.53, -10.13, 40.99, 16.76, 29.74,
143.88574361801147,0.88, 0.08, 0.25, 11.90, 9.95, -9.40, 40.21, 17.48, 31.26,
143.9946870803833,1.18, 0.03, 0.29, 4.27, -10.56, -5.86, 40.15, 18.03, 31.57,
144.10456156730652,1.14, -0.13, 0.23, -5.19, -27.34, -4.82, 41.25, 18.04, 31.05,
144.21471166610718,0.98, -0.13, 0.18, -15.38, 3.42, -15.69, 41.36, 18.95, 29.41,
144.3247697353363,0.84, 0.01, 0.27, -10.68, 14.89, 11.05, 40.47, 19.91, 30.87,
144.4332230091095,0.84, -0.10, 0.30, -5.62, 16.85, 2.75, 40.41, 18.74, 30.37,
144.54368138313293,1.02, -0.02, 0.26, -5.80, 4.39, 9.34, 40.20, 19.15, 31.19,
144.65337324142456,1.18, 0.04, 0.25, -10.86, -24.11, 3.66, 39.92, 19.24, 31.97,
144.76316833496094,0.86, 0.17, 0.09, 5.13, -2.32, 10.38, 40.82, 18.91, 29.19,
144.87304425239563,0.91, 0.07, 0.21, 13.73, 9.09, 0.73, 40.89, 18.24, 29.08,
144.98312187194824,0.85, 0.07, 0.25, 13.06, 20.81, -4.52, 40.01, 18.27, 31.96,
145.0921573638916,0.90, 0.07, 0.26, 9.77, 7.45, -7.02, 39.18, 17.74, 33.01,
145.20247268676758,1.28, 0.19, 0.26, 3.17, -15.08, -6.10, 40.08, 18.23, 31.92,
145.31143617630005,0.86, -0.19, 0.04, -0.85, -20.87, -6.84, 41.05, 17.85, 29.72,
145.42087697982788,0.97, -0.01, 0.20, -12.63, 3.11, -10.07, 40.86, 19.23, 30.36,
145.53138041496277,0.85, -0.02, 0.25, 5.19, 18.13, 7.45, 40.80, 19.48, 30.91,
145.6426877975464,0.92, -0.04, 0.30, -6.04, 3.78, 7.87, 40.42, 19.15, 31.86,
145.75247144699097,1.20, -0.05, 0.34, -13.98, -6.23, 1.77, 40.32, 19.51, 32.01,
