Time (s),Accel_X,Accel_Y,Accel_Z,Gyro_X,Gyro_Y,Gyro_Z,Mag_X,Mag_Y,Mag_Z
0.0,
0.001001119613647461,1.12, -0.11, 0.18, 2.14, -17.94, -2.26, 37.81, 20.46, 37.52,
0.001001119613647461,1.06, -0.24, 0.13, -11.54, -19.23, -1.59, 38.93, 20.41, 36.58,
0.0020134449005126953,0.85, -0.22, -0.04, -15.63, 18.68, 2.14, 39.29, 21.00, 34.73,
0.0020134449005126953,0.99, -0.12, 0.08, -9.77, 9.58, 12.76, 38.84, 21.59, 36.66,
0.003019571304321289,0.91, -0.14, 0.12, 1.59, 12.76, 0.61, 38.43, 21.08, 37.48,
0.003019571304321289,0.98, -0.18, 0.08, 1.46, 2.69, 1.89, 37.76, 20.48, 37.94,
0.004530429840087891,1.10, -0.15, 0.11, -8.30, -4.09, 7.39, 37.61, 20.91, 39.09,
0.004688739776611328,1.27, -0.02, 0.15, 14.34, -26.98, 10.25, 38.17, 19.80, 37.12,
0.0055387020111083984,0.85, -0.01, -0.02, 13.67, 8.18, -3.72, 38.39, 17.72, 36.52,
0.0055387020111083984,1.01, -0.01, 0.05, 7.93, 8.54, -6.59, 38.64, 18.26, 36.84,
0.006537437438964844,0.95, -0.07, 0.12, -0.49, 11.78, -14.83, 38.09, 19.02, 37.68,
0.006537437438964844,0.95, -0.01, 0.09, 3.11, 9.83, -5.55, 37.12, 19.89, 37.84,
0.007540225982666016,1.10, -0.06, 0.05, 7.39, -0.85, -8.85, 36.41, 20.53, 39.83,
0.00855255126953125,1.17, -0.13, 0.13, -6.29, -24.96, 4.82, 37.37, 20.65, 38.90,
0.00855255126953125,0.75, -0.19, -0.04, 5.19, -6.04, -2.14, 39.69, 20.48, 36.33,
0.009537935256958008,1.07, -0.18, 0.01, -8.36, 10.07, -1.28, 38.70, 21.81, 38.37,
0.009537935256958008,0.89, -0.11, 0.09, -3.85, 8.00, 5.62, 38.29, 21.45, 37.66,
0.010535240173339844,0.97, -0.19, 0.08, 10.13, 0.67, 16.24, 37.39, 21.03, 38.54,
0.011535406112670898,1.00, -0.22, 0.10, -3.72, -7.45, 9.16, 38.23, 18.74, 38.26,
0.011535406112670898,1.05, -0.07, 0.18, -18.86, -15.99, 12.08, 38.48, 19.49, 38.59,
0.012556791305541992,0.96, 0.01, 0.11, 7.39, -15.08, 9.22, 39.77, 18.80, 35.91,
0.012556791305541992,1.00, 0.02, 0.01, 7.08, 20.63, -13.37, 39.01, 18.02, 36.40,
0.06411576271057129,0.91, -0.07, 0.05, 3.97, 8.97, -7.32, 38.23, 18.19, 36.62,
0.17306232452392578,0.99, -0.01, 0.10, -5.98, 13.37, -14.71, 37.83, 19.20, 38.04,
0.28202390670776367,1.00, 0.00, 0.07, 8.73, 4.88, -8.61, 37.24, 20.64, 38.28,
0.39080071449279785,1.13, -0.13, 0.15, 8.12, -8.00, -7.81, 36.50, 20.32, 38.35,
0.5007553100585938,1.11, -0.22, 0.12, -17.03, -14.77, -1.77, 37.76, 21.24, 37.44,
0.6110467910766602,0.77, -0.17, -0.09, -5.49, 7.81, 5.92, 38.18, 21.83, 36.19,
0.721843957901001,1.04, -0.13, 0.07, -0.31, 2.56, 10.25, 37.40, 22.19, 37.99,
0.8311107158660889,0.91, -0.12, 0.09, 6.59, 17.88, 0.79, 37.10, 21.12, 38.05,
0.9412245750427246,0.98, -0.21, 0.04, -1.16, 11.23, 5.07, 36.29, 20.95, 39.61,
1.0507659912109375,1.11, -0.17, 0.05, -12.39, -1.04, 1.40, 36.02, 20.45, 40.25,
1.1598455905914307,1.19, -0.04, 0.09, 3.23, -20.26, 13.85, 36.02, 20.79, 39.51,
1.2700073719024658,0.78, -0.06, -0.10, 18.68, -5.98, 0.79, 38.02, 18.57, 38.88,
1.3799002170562744,1.06, -0.02, -0.01, 15.75, 4.03, -3.72, 36.68, 18.43, 38.88,
1.4885146617889404,0.89, -0.06, 0.03, 9.40, 9.16, -8.91, 37.30, 17.96, 39.94,
1.5991463661193848,0.99, -0.02, 0.03, -0.49, 6.35, -5.07, 35.89, 18.20, 39.54,
1.7075295448303223,1.06, -0.02, 0.02, 1.83, -1.40, -2.08, 35.45, 18.86, 40.55,
1.8164103031158447,1.16, -0.10, 0.11, -11.41, -20.14, 1.22, 36.11, 18.10, 39.40,
1.925828456878662,0.86, -0.19, -0.01, -13.18, -11.72, -7.81, 37.57, 20.12, 37.33,
2.0354316234588623,1.07, -0.11, 0.03, -23.68, 17.70, -2.26, 37.89, 21.00, 37.95,
2.145416498184204,0.91, -0.12, 0.05, -4.03, 14.77, 1.59, 37.95, 21.22, 38.21,
2.2545177936553955,0.94, -0.15, 0.05, 1.40, 9.64, 8.48, 36.95, 21.22, 40.45,
2.363741159439087,1.00, -0.17, 0.05, -4.27, 0.67, 3.05, 36.74, 20.70, 39.95,
2.4729163646698,1.12, -0.13, 0.10, -7.45, -4.88, 5.00, 36.05, 20.91, 39.95,
2.5821008682250977,1.15, -0.07, 0.08, 14.47, -16.48, 10.50, 37.15, 19.92, 39.72,
2.691694974899292,0.89, -0.00, -0.09, 13.49, 8.42, -1.95, 37.11, 18.13, 39.04,
2.8018581867218018,0.95, -0.07, -0.01, 8.67, 4.52, -3.11, 36.74, 18.42, 39.84,
2.910332679748535,0.98, -0.03, 0.03, -3.36, 10.93, -10.74, 36.22, 18.84, 39.88,
3.0206117630004883,0.98, 0.00, 0.05, -1.28, 4.76, -3.11, 36.02, 19.41, 40.04,
3.129168748855591,1.13, 0.00, 0.04, 0.43, -0.85, -9.03, 35.24, 19.69, 39.93,
3.238262891769409,1.18, -0.12, 0.06, -8.91, -19.29, 8.00, 36.30, 19.65, 39.99,
3.347238302230835,0.74, -0.13, -0.10, -0.85, -11.54, -1.83, 37.24, 20.43, 39.15,
3.4577133655548096,1.07, -0.09, 0.01, -5.37, 5.86, 8.67, 37.82, 19.79, 38.71,
3.5680673122406006,0.90, -0.10, 0.07, 5.43, 2.75, 6.77, 37.18, 19.70, 38.65,
3.6763253211975098,0.95, -0.14, 0.05, 0.37, 8.79, 5.80, 37.05, 18.52, 39.64,
3.7858378887176514,1.05, -0.16, 0.05, -13.12, -3.66, 5.55, 36.94, 18.73, 39.76,
3.8957955837249756,1.20, -0.07, 0.13, -2.93, -23.68, 10.56, 37.26, 19.42, 38.96,
4.006028175354004,0.81, 0.01, 0.01, 10.68, -14.04, 13.18, 38.94, 18.21, 37.41,
4.114187717437744,1.08, 0.03, 0.02, 11.11, 13.37, -13.67, 38.43, 16.93, 38.17,
4.224147319793701,0.88, -0.04, 0.07, 3.60, 8.91, -6.59, 37.27, 16.99, 38.33,
4.333432674407959,0.97, 0.06, 0.08, -5.55, 6.23, -12.33, 36.66, 18.03, 38.95,
4.443289756774902,1.00, 0.02, 0.03, 1.71, 1.28, -11.84, 35.66, 19.97, 39.37,
4.5541298389434814,1.12, -0.05, 0.15, -5.86, -24.72, -5.43, 35.85, 20.72, 39.77,
4.663551330566406,0.94, -0.17, 0.04, -10.62, -12.27, -7.93, 37.44, 20.96, 38.65,
4.77335524559021,1.05, -0.13, -0.03, -20.94, 23.13, -3.97, 38.05, 21.04, 37.12,
4.8835289478302,0.94, -0.13, 0.06, -6.84, 9.03, 6.71, 37.28, 21.77, 39.71,
4.992669582366943,0.94, -0.18, 0.07, -0.92, 11.17, 1.83, 36.76, 21.50, 39.76,
5.10151219367981,0.96, -0.20, 0.07, -7.08, 4.09, -0.67, 37.16, 21.96, 41.03,
5.2105371952056885,1.15, -0.10, 0.08, -10.07, -8.48, 2.08, 36.38, 22.63, 40.75,
5.319963216781616,1.07, -0.05, 0.06, 22.58, -27.77, 6.84, 37.54, 21.92, 39.37,
5.42868185043335,0.90, -0.04, -0.05, 15.81, 3.54, 1.46, 38.22, 19.56, 38.70,
5.537876605987549,0.98, 0.02, 0.04, 26.61, 5.25, 9.89, 37.90, 18.65, 38.07,
5.646349668502808,0.95, -0.04, 0.09, 7.81, 15.69, -5.07, 36.73, 16.59, 39.45,
5.75707483291626,1.00, 0.06, 0.06, 5.37, 5.55, -3.85, 35.96, 16.93, 40.38,
5.864928960800171,1.13, -0.02, 0.08, 15.26, -13.73, -2.75, 36.60, 17.19, 39.69,
5.975243806838989,1.14, -0.17, 0.09, 3.11, -19.17, -4.58, 38.60, 16.08, 39.11,
6.085343360900879,0.75, -0.13, -0.08, -0.12, 6.10, 0.37, 39.37, 16.31, 37.28,
6.195925712585449,0.97, -0.14, 0.06, -2.75, 14.77, 2.62, 38.24, 16.09, 38.09,
6.305370092391968,0.92, -0.09, 0.08, 0.49, 18.25, 3.66, 37.29, 15.92, 40.66,
6.415914058685303,1.01, -0.17, -0.01, -7.45, -1.46, 9.34, 36.82, 15.89, 41.44,
6.526403903961182,1.18, -0.07, -0.01, -11.72, -13.49, 11.17, 36.65, 15.50, 40.55,
6.637026309967041,0.88, 0.14, -0.03, 16.97, -13.12, 11.84, 37.61, 14.62, 40.19,
6.745649099349976,0.99, 0.02, 0.05, 8.42, 15.50, -4.15, 37.30, 13.50, 38.96,
6.857030630111694,0.90, 0.05, 0.06, -5.13, 15.01, -5.37, 36.52, 13.79, 39.94,
6.966618537902832,0.97, 0.13, 0.05, -0.06, 5.80, -10.50, 35.85, 14.70, 42.55,
7.076439142227173,1.12, 0.00, -0.01, 15.56, 5.25, -23.74, 35.51, 15.36, 42.31,
7.18635106086731,1.30, -0.18, 0.02, 7.02, -20.94, -19.96, 36.91, 15.99, 41.43,
7.296813011169434,0.61, -0.16, -0.16, 9.95, -2.81, -13.31, 37.52, 17.29, 39.73,
7.405542373657227,1.09, -0.22, -0.04, -14.95, 12.82, 1.16, 36.54, 18.58, 41.52,
7.513800144195557,0.87, -0.18, 0.01, -4.39, 17.03, 7.93, 36.55, 18.59, 42.03,
7.62483811378479,1.01, -0.23, -0.01, -2.81, 7.26, 9.64, 35.96, 18.53, 42.87,
7.735291242599487,1.12, -0.18, -0.07, -23.32, -2.75, 20.20, 35.36, 18.41, 43.92,
7.846020460128784,1.25, 0.05, -0.05, 14.95, -27.47, 33.39, 36.13, 16.96, 42.16,
7.957120895385742,0.87, 0.03, -0.10, 14.83, 4.58, 8.42, 37.39, 13.64, 40.64,
8.066224813461304,0.96, 0.10, -0.05, 7.32, 4.39, -6.77, 36.22, 13.33, 42.71,
8.176453590393066,0.93, 0.07, -0.01, -0.43, 12.08, -10.44, 35.78, 13.21, 41.88,
8.28612470626831,0.98, 0.08, -0.10, 0.85, -4.94, -14.16, 35.05, 14.00, 43.23,
8.396090269088745,1.21, -0.01, -0.01, 5.86, -28.87, -20.63, 36.82, 15.55, 41.75,
8.505192756652832,0.91, -0.18, -0.00, -4.82, -26.49, -16.72, 38.40, 17.14, 40.25,
8.61575961112976,1.03, -0.21, 0.04, -41.02, 27.71, -2.08, 38.43, 18.84, 39.56,
8.725935220718384,0.91, -0.15, 0.03, -17.88, 9.89, 9.03, 37.46, 19.45, 39.81,
8.834843873977661,0.93, -0.14, 0.03, -2.38, 8.67, 9.22, 37.30, 20.00, 40.67,
8.9442458152771,1.05, -0.18, -0.01, -6.04, -3.72, 8.73, 36.51, 19.49, 41.13,
9.053475141525269,1.34, -0.07, 0.06, -5.86, -18.92, 20.87, 36.82, 18.62, 40.60,
9.163336038589478,0.85, -0.01, -0.04, 20.81, -7.69, 18.92, 37.81, 15.99, 39.17,
9.274231910705566,1.04, 0.09, 0.02, 30.27, 14.95, -5.43, 37.55, 15.16, 39.44,
9.383527994155884,0.86, -0.00, 0.04, 14.65, 16.36, -7.45, 36.54, 13.87, 39.28,
9.49583888053894,1.00, 0.09, 0.04, 4.03, 7.87, -13.98, 36.06, 14.45, 40.75,
9.604295492172241,1.07, 0.02, -0.08, 14.53, -6.23, -19.96, 35.88, 14.82, 41.11,
9.715041399002075,1.34, -0.24, 0.07, -13.31, -24.41, -12.51, 36.94, 15.64, 40.42,
9.82417917251587,0.62, -0.18, -0.12, -25.94, -10.50, -5.00, 38.66, 19.42, 38.70,
9.93503451347351,1.12, -0.15, 0.05, -23.19, 7.75, 0.67, 37.66, 20.74, 39.01,
10.045937299728394,0.84, -0.11, 0.08, -10.19, 14.89, 3.60, 36.87, 21.22, 39.67,
10.157005310058594,0.96, -0.24, 0.06, -6.04, 12.76, 3.97, 36.60, 21.18, 40.28,
10.266311645507812,1.13, -0.08, -0.03, -29.24, -6.35, -0.67, 36.17, 21.68, 40.41,
10.375774621963501,1.29, -0.02, 0.07, 5.55, -23.74, 12.45, 36.47, 22.42, 39.42,
10.484367847442627,0.84, 0.02, -0.06, 20.57, -1.22, -6.47, 37.84, 20.69, 38.10,
10.594963550567627,0.97, -0.08, 0.04, 12.70, 11.29, -2.20, 36.69, 19.87, 39.17,
10.703490018844604,0.97, -0.09, 0.06, 0.55, 22.52, -1.53, 35.01, 20.08, 39.66,
10.813214778900146,0.96, 0.04, -0.03, -7.39, -1.89, -7.39, 35.07, 20.18, 41.00,
10.92560338973999,1.16, -0.04, 0.06, 2.38, -0.61, -2.69, 34.97, 21.31, 40.87,
11.035903692245483,1.08, -0.22, -0.00, -13.85, -16.78, 3.30, 36.41, 20.64, 40.17,
11.145742177963257,0.84, -0.10, -0.09, -16.42, 14.10, 2.20, 36.84, 21.90, 38.82,
11.255387783050537,1.00, -0.12, -0.01, -9.52, 8.79, 13.73, 36.98, 21.92, 39.75,
11.365712881088257,0.95, -0.08, 0.01, 0.49, 12.45, 1.28, 36.46, 20.89, 41.04,
11.475352764129639,0.99, -0.13, -0.03, 4.03, -2.44, 5.55, 35.77, 21.12, 40.92,
11.585261106491089,1.13, -0.10, 0.02, 3.17, -21.30, 8.97, 35.02, 20.34, 41.26,
11.695401906967163,1.02, 0.06, 0.02, 29.11, -26.12, 15.99, 37.24, 19.34, 39.58,
11.805999279022217,0.93, 0.04, -0.02, 21.97, 4.76, 3.60, 37.78, 15.49, 38.39,
11.915698528289795,0.90, 0.03, 0.06, 9.95, 8.73, -2.32, 37.49, 14.64, 38.21,
12.025047779083252,0.97, 0.07, 0.05, -2.20, 11.17, -6.71, 36.51, 14.81, 39.05,
12.134434461593628,0.99, 0.11, -0.04, 0.85, -1.22, -6.29, 36.66, 15.34, 39.92,
12.244226932525635,1.25, -0.00, 0.10, -3.42, -25.45, -8.91, 36.87, 16.02, 39.88,
12.353130578994751,0.89, -0.12, 0.05, -16.42, -17.76, -8.48, 38.29, 17.57, 38.33,
12.463324546813965,1.06, -0.07, 0.06, -31.25, 24.84, -5.74, 38.26, 18.81, 36.74,
12.573678731918335,0.87, -0.08, 0.08, -3.60, 7.26, 4.76, 37.51, 19.46, 40.22,
12.683444261550903,0.94, -0.09, 0.07, 3.17, 10.19, 3.17, 37.45, 19.09, 39.54,
12.794841289520264,1.03, -0.16, 0.04, -6.04, 1.53, 1.53, 37.19, 18.82, 40.04,
12.904059886932373,1.28, -0.05, 0.08, -5.37, -13.00, 5.49, 37.32, 19.19, 39.44,
13.014187097549438,0.85, -0.07, -0.08, 21.30, -8.48, 12.21, 38.43, 19.27, 38.84,
13.12470030784607,1.02, 0.08, -0.01, 6.77, 12.63, -9.28, 37.29, 17.79, 37.70,
13.234206914901733,0.90, -0.02, 0.02, 7.93, 11.35, -6.71, 36.45, 17.11, 40.34,
13.345107555389404,0.99, 0.03, 0.03, 3.78, 7.57, -8.36, 35.41, 17.74, 39.92,
13.454055786132812,1.00, 0.04, -0.02, 6.77, -3.97, -5.55, 35.21, 17.87, 40.56,
13.563805341720581,1.15, -0.02, 0.11, 0.85, -25.63, -2.75, 36.13, 17.90, 40.27,
13.673887014389038,0.89, -0.15, -0.01, -5.62, -17.70, -8.18, 37.29, 17.97, 38.96,
13.783507585525513,1.00, -0.14, -0.01, -10.74, 16.91, -1.10, 37.93, 18.65, 39.05,
13.8935706615448,0.95, -0.12, 0.07, -2.56, 8.79, 7.26, 37.08, 15.73, 40.55,
14.003743648529053,0.92, -0.08, 0.05, 3.72, 12.88, 5.19, 36.99, 18.69, 41.24,
14.112580060958862,1.02, -0.15, 0.02, -3.36, 1.34, 4.64, 36.58, 17.75, 40.54,
14.222348928451538,1.16, -0.08, 0.01, -11.60, -9.89, 6.77, 36.46, 18.58, 39.77,
14.332456827163696,1.03, 0.06, 0.05, 27.59, -26.43, 14.53, 37.59, 16.30, 38.53,
14.44175934791565,0.96, 0.06, -0.01, 18.62, 12.57, -5.07, 37.89, 15.11, 37.60,
14.550683736801147,0.92, -0.00, 0.03, 11.84, 7.32, -5.07, 36.77, 14.39, 38.88,
14.660534858703613,0.94, 0.03, 0.09, 4.46, 14.95, -7.02, 35.90, 14.48, 39.73,
14.771746158599854,0.96, 0.06, -0.01, 16.54, 2.50, -2.81, 36.36, 14.06, 39.43,
14.881062030792236,1.18, -0.07, 0.14, 2.38, -16.42, -7.02, 36.43, 13.42, 39.76,
14.992079734802246,1.03, -0.15, 0.01, -18.13, -18.74, -23.56, 37.93, 15.45, 38.82,
15.101264238357544,0.99, -0.16, -0.04, -30.58, 27.22, 1.53, 38.83, 17.41, 37.84,
15.21114444732666,0.91, -0.19, 0.05, -5.74, 10.44, 7.26, 38.16, 17.79, 38.68,
15.320236444473267,0.93, -0.16, 0.03, -2.26, 11.84, 7.63, 36.74, 17.35, 41.61,
15.431080341339111,1.00, -0.19, 0.01, -3.72, 2.26, 8.00, 36.21, 17.44, 41.32,
15.540364503860474,1.12, -0.11, 0.04, -10.80, -7.20, 11.90, 36.50, 17.30, 39.71,
15.650612831115723,1.13, 0.05, 0.04, 15.26, -17.52, 11.96, 37.59, 16.26, 40.27,
15.759897232055664,0.92, 0.08, -0.05, 12.76, 12.27, -7.02, 37.82, 14.38, 40.33,
15.869876146316528,0.91, -0.03, -0.03, 15.01, 8.42, -1.40, 36.89, 14.03, 40.12,
15.979362726211548,0.98, 0.02, 0.02, 8.12, 10.38, -4.27, 36.38, 13.60, 40.71,
16.08968710899353,0.98, 0.05, -0.00, 14.34, -5.13, -6.71, 36.08, 13.27, 41.76,
16.19877815246582,1.20, -0.05, 0.15, 1.34, -16.42, -7.69, 36.41, 12.76, 40.47,
16.3080997467041,1.09, -0.11, 0.04, -13.24, -17.03, -19.53, 37.66, 14.26, 39.03,
16.417654991149902,0.86, -0.20, -0.15, -1.22, 13.67, -3.72, 39.07, 15.54, 38.66,
16.527506589889526,1.00, -0.14, 0.02, -11.17, 3.54, -2.32, 38.26, 15.84, 39.93,
16.63715410232544,0.92, -0.13, 0.05, -2.32, 9.95, 6.65, 38.46, 16.24, 39.20,
16.74800395965576,1.02, -0.19, 0.01, -10.56, 7.14, 3.54, 37.24, 15.75, 41.37,
16.857014417648315,1.09, -0.13, 0.04, -19.59, -7.87, 7.08, 36.82, 17.09, 40.54,
16.96740746498108,1.16, -0.02, 0.12, 5.86, -26.43, 13.06, 37.41, 15.56, 38.81,
17.078330755233765,0.90, 0.01, -0.00, 12.15, -1.04, 2.56, 38.54, 14.28, 36.74,
17.188217639923096,0.94, -0.00, 0.05, 15.99, 4.39, 1.65, 38.60, 13.78, 36.98,
17.297860383987427,0.96, 0.03, 0.10, 10.31, 18.07, -5.86, 37.93, 13.31, 38.39,
17.40800642967224,0.96, 0.02, 0.06, 11.66, 1.04, -7.57, 36.95, 12.79, 39.28,
17.517890214920044,1.21, -0.05, 0.13, 3.91, -11.54, -9.70, 37.32, 13.20, 38.33,
17.62809181213379,1.17, -0.18, 0.15, -18.31, -29.54, -16.30, 39.18, 14.15, 36.68,
17.736129760742188,0.75, -0.16, -0.07, 3.11, -4.39, -10.44, 40.00, 16.00, 35.21,
17.84701657295227,1.00, -0.21, 0.09, 1.65, 3.11, 1.40, 39.28, 16.31, 35.89,
17.95605206489563,0.89, -0.17, 0.13, 2.99, 13.00, 8.67, 39.11, 16.13, 35.47,
18.066272258758545,0.97, -0.25, 0.12, -5.07, 4.58, 10.13, 38.60, 15.19, 37.38,
18.17562222480774,1.05, -0.25, 0.09, -32.90, -7.39, 9.03, 38.57, 15.48, 37.98,
18.28642988204956,1.05, 0.09, 0.06, 11.41, -21.18, 14.34, 38.88, 15.31, 37.07,
18.396238565444946,0.96, -0.00, 0.09, 23.99, 3.23, 8.12, 39.17, 12.96, 35.88,
18.50657892227173,0.89, 0.00, 0.15, 1.83, 3.97, -4.46, 38.95, 12.10, 35.62,
18.616114854812622,0.90, 0.04, 0.19, -4.46, 9.70, -8.91, 38.62, 12.66, 36.27,
18.72692561149597,1.01, 0.05, 0.09, 6.41, 2.20, -5.37, 38.38, 12.60, 37.00,
18.836793184280396,1.19, -0.12, 0.21, -8.00, -19.53, -5.25, 38.93, 12.96, 37.17,
18.94582962989807,0.91, -0.10, 0.11, -26.12, -22.95, -16.05, 40.89, 14.94, 33.84,
19.055548906326294,1.03, -0.18, 0.13, -23.38, 17.27, -4.27, 40.60, 16.37, 34.44,
19.166842937469482,0.90, -0.15, 0.15, -15.75, 10.13, -2.62, 40.08, 17.49, 34.31,
19.276972770690918,0.89, -0.19, 0.12, 1.71, 9.22, 6.23, 40.09, 18.40, 35.05,
19.38657522201538,0.96, -0.23, 0.13, -0.79, -1.95, 3.97, 40.30, 16.96, 36.69,
19.497913122177124,1.19, -0.16, 0.16, 3.54, -17.58, 11.05, 39.92, 16.96, 36.25,
19.60820770263672,0.81, -0.02, 0.10, 18.74, -10.86, 13.67, 40.95, 15.28, 35.29,
19.718564987182617,1.08, -0.03, 0.14, 11.41, 10.50, -1.71, 40.28, 14.23, 34.45,
19.828404188156128,0.86, -0.05, 0.16, -7.02, 13.92, -4.76, 40.11, 13.89, 35.36,
19.937153339385986,0.97, 0.04, 0.15, -8.67, 10.38, -5.19, 38.94, 14.71, 36.65,
20.046133995056152,1.06, 0.01, 0.09, -2.81, -1.16, -16.36, 38.82, 15.55, 36.19,
20.15689516067505,1.25, -0.13, 0.25, -11.05, -15.93, -5.98, 39.26, 17.10, 36.19,
20.266422510147095,0.74, -0.20, 0.10, -22.28, -4.33, -10.80, 40.23, 18.42, 36.02,
20.37795639038086,1.09, -0.18, 0.13, -20.26, 18.01, -6.35, 39.34, 20.42, 36.18,
20.487566471099854,0.88, -0.16, 0.14, -15.56, 21.36, -0.06, 38.79, 21.13, 38.34,
20.597529888153076,0.93, -0.18, 0.05, -1.89, 4.58, 2.69, 38.38, 21.72, 37.85,
20.70607042312622,1.03, -0.29, 0.07, -4.94, -5.31, 5.19, 37.34, 21.67, 38.66,
20.814987897872925,1.27, -0.11, 0.20, 2.01, -22.46, 5.74, 38.09, 21.91, 37.18,
20.9259135723114,0.81, -0.02, 0.01, 11.54, -1.77, -1.46, 38.65, 20.73, 35.74,
21.03506565093994,0.96, -0.08, 0.08, 16.17, 4.21, 3.48, 37.98, 19.80, 37.51,
21.14547109603882,0.94, -0.08, 0.15, 17.52, 9.28, -5.31, 37.34, 19.01, 37.44,
21.255615711212158,1.00, 0.02, 0.11, 22.77, 0.67, -0.98, 37.73, 18.12, 38.59,
21.366044759750366,1.13, -0.07, 0.21, 20.51, -3.78, 1.71, 38.46, 17.68, 37.59,
21.475377082824707,1.16, -0.20, 0.20, -2.87, -15.50, -5.55, 39.14, 16.49, 37.28,
21.5858097076416,0.83, -0.12, 0.00, -11.23, 8.79, -3.78, 39.98, 16.86, 36.63,
21.695770263671875,0.94, -0.32, 0.07, 2.50, -8.00, 12.70, 39.61, 16.85, 36.44,
21.806047677993774,1.04, -0.07, 0.07, 7.75, 11.78, 12.94, 39.14, 15.41, 36.96,
21.915525436401367,0.90, -0.20, 0.14, 12.88, -16.17, 20.08, 39.58, 13.35, 37.24,
22.02567434310913,1.15, -0.07, 0.13, -12.08, -5.98, 7.63, 39.77, 12.18, 36.46,
22.13512945175171,0.94, 0.01, 0.11, 16.54, -1.10, 25.57, 39.70, 11.58, 36.71,
22.24570107460022,1.02, 0.14, 0.06, 17.21, 26.18, 6.16, 39.23, 9.22, 36.35,
22.35582971572876,0.84, 0.02, 0.04, -0.37, 14.34, -5.31, 37.87, 8.65, 38.98,
22.46580958366394,0.97, 0.16, 0.10, -6.04, 17.52, -5.92, 37.56, 9.58, 39.88,
22.575897455215454,0.99, 0.18, -0.02, 1.22, -5.98, -15.50, 36.91, 10.57, 40.59,
22.68600606918335,1.42, -0.20, 0.08, -12.39, -18.19, -16.60, 37.60, 11.24, 40.63,
22.7957284450531,0.61, -0.10, -0.09, -25.39, -2.50, -5.31, 38.79, 13.53, 39.05,
22.905669689178467,1.01, -0.03, 0.07, -13.61, 5.86, 4.39, 38.10, 15.55, 38.04,
23.014939308166504,0.97, -0.07, 0.04, 3.30, 5.07, -8.06, 38.31, 16.38, 40.83,
23.12496781349182,0.94, -0.19, 0.09, 8.48, 4.21, 3.91, 38.28, 15.47, 40.81,
23.233874320983887,1.07, -0.13, -0.01, -15.63, 4.94, 0.67, 37.95, 15.99, 40.93,
23.344034671783447,1.22, -0.02, 0.07, 9.89, -22.58, 20.45, 37.52, 15.77, 40.77,
23.45459294319153,0.80, 0.06, -0.10, 11.84, 0.79, -2.26, 39.01, 13.12, 39.23,
23.563365936279297,1.01, 0.03, 0.03, 16.97, 15.26, -0.18, 37.89, 12.72, 40.34,
23.673139095306396,0.97, 0.01, -0.01, 8.79, 10.13, -5.31, 37.62, 12.37, 41.74,
23.78317141532898,0.95, 0.01, 0.03, 10.62, 2.32, -5.31, 36.99, 11.43, 41.22,
23.89277148246765,1.17, 0.04, 0.02, 9.03, -9.46, -8.73, 36.84, 11.65, 41.74,
24.002233743667603,1.25, -0.21, 0.11, -14.59, -22.40, -12.76, 38.76, 12.82, 39.61,
24.11248230934143,0.70, -0.11, -0.14, -6.90, -4.88, -10.86, 39.76, 14.16, 37.77,
24.222618341445923,1.03, -0.17, 0.01, -18.31, 8.36, 5.13, 39.38, 15.30, 39.01,
24.33159351348877,0.90, -0.09, 0.04, -9.03, 8.97, 2.62, 38.65, 16.33, 39.04,
24.441725254058838,1.00, -0.24, 0.08, -18.80, 4.27, 7.20, 37.29, 16.53, 40.95,
24.550405502319336,1.11, -0.13, 0.03, -36.56, 0.49, 5.74, 36.63, 17.81, 41.16,
24.660878658294678,1.25, 0.00, 0.13, 10.19, -23.01, 20.63, 37.60, 17.22, 39.73,
24.770715713500977,0.76, 0.02, -0.04, 8.18, 1.16, 5.49, 38.37, 14.97, 38.70,
24.88068985939026,1.05, 0.07, 0.04, -1.59, 16.48, -8.61, 37.83, 15.23, 39.50,
24.991586923599243,0.90, 0.03, 0.07, 5.43, 15.32, -12.82, 36.79, 15.52, 39.99,
25.10007643699646,0.98, 0.08, 0.05, 20.81, 5.37, -9.34, 35.95, 16.60, 40.44,
25.210946559906006,1.12, -0.01, -0.03, 33.57, -4.58, -16.17, 35.85, 15.49, 41.48,
25.320642709732056,1.31, -0.29, 0.08, -0.92, -16.17, -9.16, 37.54, 14.99, 38.77,
25.430750370025635,0.69, -0.15, -0.14, -11.84, -0.79, -16.72, 38.15, 17.14, 39.18,
25.540277242660522,1.05, -0.22, -0.04, -11.23, 4.88, 10.31, 37.71, 17.91, 37.73,
25.649977684020996,0.88, -0.12, 0.04, -6.35, 13.79, 3.42, 37.50, 18.12, 40.69,
25.76080632209778,1.00, -0.25, -0.01, -10.01, 5.07, 5.92, 37.73, 17.52, 41.27,
25.870891571044922,1.03, -0.21, 0.00, -36.68, -3.97, 9.83, 37.26, 18.82, 41.26,
25.980985403060913,1.20, -0.08, 0.10, -4.58, -21.48, 15.01, 37.22, 19.31, 40.28,
26.091398239135742,0.81, -0.03, -0.07, 19.10, -7.08, 7.87, 38.32, 17.35, 37.49,
26.20195198059082,1.05, -0.01, 0.03, 9.28, 10.25, -4.70, 37.60, 16.69, 38.46,
26.311640739440918,0.87, -0.02, 0.10, 7.45, 14.47, -10.25, 37.17, 16.67, 38.85,
26.42146062850952,0.98, 0.03, 0.05, 14.65, 11.35, -6.35, 35.84, 17.08, 40.77,
26.531915426254272,1.17, -0.05, -0.04, 22.71, -3.11, -9.22, 35.78, 16.28, 41.82,
26.641154766082764,1.26, -0.29, 0.05, -19.47, -13.06, -11.11, 36.99, 17.24, 40.84,
26.751166582107544,0.66, -0.17, -0.19, -14.53, -4.88, -7.75, 37.78, 19.73, 40.60,
26.862805128097534,1.03, -0.22, -0.03, -3.72, 4.46, 17.64, 37.67, 19.60, 39.94,
26.972185134887695,0.86, -0.10, 0.04, 7.57, 4.52, 7.57, 36.44, 19.20, 41.06,
27.08195686340332,1.00, -0.25, 0.04, 1.10, 4.64, 11.84, 36.08, 17.59, 42.46,
27.19029951095581,1.12, -0.17, 0.00, -21.48, -5.55, 12.39, 36.25, 17.65, 42.71,
27.300130367279053,1.17, 0.06, 0.08, -0.37, -30.33, 18.62, 38.07, 16.61, 41.00,
27.411677360534668,0.85, 0.04, -0.09, 14.40, 11.29, 6.23, 38.72, 14.22, 38.94,
27.520168781280518,0.94, 0.05, -0.01, -0.61, 10.38, 3.60, 37.49, 14.58, 40.05,
27.6303653717041,0.93, 0.04, 0.02, -27.95, 12.76, -4.82, 37.06, 14.73, 40.71,
27.740453481674194,0.98, 0.12, 0.03, -2.87, 3.91, -9.77, 36.95, 16.81, 41.58,
27.84962821006775,1.15, 0.05, -0.00, 12.27, -4.88, -10.31, 35.74, 17.22, 41.97,
27.960243701934814,1.26, -0.20, 0.05, -4.70, -17.76, -13.43, 37.55, 17.50, 40.06,
28.070758819580078,0.80, -0.19, -0.19, -19.10, 8.73, -12.02, 38.24, 18.84, 40.03,
28.18001651763916,1.06, -0.12, -0.03, -5.25, 2.20, 6.41, 37.55, 20.09, 39.97,
28.29021120071411,0.91, -0.09, 0.07, 8.79, 0.12, 3.91, 36.94, 19.58, 40.91,
28.40017032623291,0.96, -0.21, 0.07, 0.55, -1.22, 3.91, 37.10, 18.65, 41.19,
28.509096145629883,1.08, -0.17, 0.00, -20.20, 0.12, 0.00, 36.98, 19.23, 40.30,
28.61855149269104,1.18, -0.02, 0.09, 21.85, -30.15, 25.45, 38.20, 18.88, 40.44,
28.728421449661255,0.80, -0.01, -0.12, 22.89, 6.77, 5.13, 38.66, 16.08, 39.26,
28.837501525878906,1.03, 0.05, -0.01, 14.28, 7.45, -2.44, 37.68, 15.09, 39.77,
28.946239709854126,0.92, 0.02, 0.03, 2.87, 6.90, -10.86, 36.57, 15.15, 40.49,
29.056958198547363,0.96, 0.05, 0.05, 0.37, 2.75, -7.14, 36.84, 16.21, 41.06,
29.166452407836914,1.03, 0.02, 0.01, 11.54, -1.53, -9.70, 36.54, 16.14, 41.60,
29.276639938354492,1.20, -0.05, 0.13, -13.24, -19.35, -5.86, 37.23, 16.92, 40.60,
29.38677191734314,0.86, -0.09, -0.06, -16.72, -6.84, -10.07, 38.77, 19.13, 38.89,
29.496947526931763,1.04, -0.13, -0.01, -18.19, 9.58, -6.10, 38.81, 20.84, 39.10,
29.606831550598145,0.88, -0.10, 0.02, 8.30, 9.52, 3.17, 37.65, 19.75, 40.06,
29.715570211410522,0.96, -0.21, 0.01, 6.90, 7.93, 7.14, 37.11, 19.32, 39.97,
29.825110912322998,0.98, -0.18, -0.03, -10.19, 1.59, 3.17, 36.65, 19.13, 40.65,
29.93681526184082,1.13, -0.14, 0.04, -13.49, -1.83, 9.09, 36.63, 20.29, 42.55,
30.045687198638916,1.15, -0.10, 0.06, 7.26, -18.55, 20.57, 37.41, 18.54, 41.60,
30.155417442321777,0.86, 0.02, -0.14, 1.28, 5.62, 3.78, 38.12, 17.57, 39.89,
30.264400482177734,1.02, 0.03, -0.03, 8.85, 9.40, 2.56, 37.59, 17.14, 40.54,
30.374019145965576,0.91, 0.03, -0.04, -0.49, 10.74, -9.52, 36.18, 17.37, 41.37,
30.484298706054688,0.98, 0.04, -0.01, 8.42, 2.69, -11.41, 36.36, 17.60, 42.41,
30.595292806625366,1.03, 0.00, -0.02, 18.55, -2.69, -11.29, 35.52, 18.40, 40.88,
30.70515489578247,1.13, -0.08, 0.12, -3.11, -15.32, -6.47, 36.28, 18.16, 42.33,
30.815834522247314,1.11, -0.10, 0.01, -21.36, -16.11, -16.54, 36.69, 19.57, 39.75,
30.92493987083435,0.92, -0.25, -0.14, -5.62, 4.33, -2.87, 38.05, 20.42, 39.27,
31.036804914474487,0.95, -0.14, -0.01, -0.73, 5.74, 10.86, 37.41, 20.86, 40.08,
31.14664125442505,0.89, -0.14, 0.04, 5.31, 10.56, 7.20, 37.13, 20.03, 40.38,
31.255473852157593,0.99, -0.17, 0.05, -11.11, 1.46, 5.55, 36.66, 19.02, 41.61,
31.365405082702637,1.09, -0.11, 0.00, -13.12, -0.31, 8.48, 36.05, 19.76, 41.82,
31.47547149658203,1.05, -0.05, 0.11, 14.77, -16.05, 18.49, 37.24, 18.88, 41.36,
31.585269689559937,0.91, 0.01, -0.04, 11.78, -12.02, 1.89, 38.27, 17.25, 39.15,
31.69532012939453,1.09, 0.04, -0.05, 1.95, 12.51, -5.37, 37.57, 16.94, 41.08,
31.80428957939148,0.88, -0.04, -0.02, 0.06, 12.51, -5.92, 37.66, 16.54, 40.39,
31.914517402648926,0.99, 0.02, 0.01, 0.55, 5.55, -10.62, 36.02, 17.02, 40.01,
32.02367663383484,0.98, -0.01, 0.03, 4.82, -1.95, -9.52, 35.89, 17.93, 41.13,
32.135613441467285,1.13, -0.06, 0.14, 1.04, -14.10, -8.48, 36.22, 18.16, 40.89,
32.24548411369324,1.23, -0.20, 0.06, -20.51, -18.37, -13.55, 37.37, 19.12, 38.76,
32.35548424720764,0.79, -0.22, -0.13, -11.47, 4.27, -4.94, 39.00, 20.14, 38.23,
32.4650239944458,0.99, -0.20, 0.03, -0.85, 6.71, 9.09, 38.15, 21.40, 39.40,
32.57558822631836,0.90, -0.15, 0.06, 3.17, 11.47, 3.85, 37.81, 20.90, 39.36,
32.685707807540894,1.00, -0.23, 0.03, 2.50, 5.19, 6.47, 36.76, 20.52, 41.08,
32.79524564743042,1.10, -0.19, 0.06, -10.80, -4.39, 12.39, 36.47, 19.49, 42.08,
32.9059042930603,1.16, -0.06, 0.08, 3.66, -20.75, 20.63, 37.88, 19.20, 40.11,
33.0166540145874,0.84, -0.02, -0.07, 14.95, -0.92, 15.87, 38.29, 16.89, 38.55,
33.1269006729126,1.02, 0.02, 0.01, 3.72, 6.10, -2.81, 38.02, 15.97, 39.00,
33.23567605018616,0.90, -0.01, 0.03, -2.32, 6.96, -8.12, 37.30, 16.26, 39.78,
33.34482431411743,0.96, 0.06, 0.02, 4.09, 9.40, -5.00, 37.04, 16.81, 40.39,
33.45469284057617,1.07, 0.06, -0.01, 6.84, 2.08, -9.34, 36.13, 17.59, 40.92,
33.56512188911438,1.16, -0.04, 0.10, -7.57, -22.64, -4.21, 37.18, 17.76, 40.70,
33.67522644996643,0.88, -0.09, 0.00, -17.70, -7.45, -15.01, 38.12, 19.17, 39.10,
33.785632610321045,1.05, -0.15, -0.04, -16.60, 18.07, -3.17, 37.55, 20.31, 39.10,
33.895663261413574,0.91, -0.09, 0.01, 2.81, 11.47, 9.03, 37.60, 20.40, 39.66,
34.00493812561035,0.93, -0.15, 0.00, 5.86, 12.08, 10.07, 37.46, 19.29, 40.64,
34.11537456512451,1.02, -0.14, 0.00, -9.03, 0.85, 0.18, 36.15, 19.21, 42.50,
34.22574257850647,1.15, -0.09, 0.07, -15.14, -9.34, 10.68, 37.07, 20.01, 42.16,
34.33662223815918,1.18, 0.01, 0.02, 1.89, -25.02, 5.92, 38.15, 18.74, 40.61,
34.445595502853394,0.86, 0.06, -0.10, 17.03, 1.89, -5.25, 38.71, 18.03, 40.25,
34.55404353141785,0.98, 0.00, -0.03, 25.88, 2.44, 0.00, 37.62, 16.81, 39.42,
34.66360855102539,0.95, 0.00, 0.05, 11.05, 9.64, -8.36, 37.33, 16.02, 40.64,
34.77290105819702,0.98, 0.03, 0.06, 4.21, 1.95, -10.01, 36.67, 15.81, 39.92,
34.88218450546265,1.09, 0.01, -0.00, 2.50, -2.56, -17.52, 36.54, 17.18, 41.06,
34.992618799209595,1.28, -0.19, 0.09, -11.29, -20.51, -5.00, 38.82, 18.71, 39.23,
35.10275053977966,0.65, -0.13, -0.09, -8.79, 2.87, -0.85, 39.58, 19.51, 38.02,
35.21274161338806,1.08, -0.14, 0.02, -9.64, 4.94, 4.09, 38.90, 19.79, 38.75,
35.322009801864624,0.89, -0.10, 0.06, 1.59, 7.75, 7.39, 38.22, 19.49, 40.72,
35.431100845336914,0.97, -0.21, 0.05, 1.53, 12.51, 5.62, 38.45, 18.07, 40.34,
35.54098391532898,1.00, -0.19, 0.00, -18.19, 1.95, 2.32, 37.62, 18.51, 41.47,
35.65007543563843,1.18, -0.04, 0.10, -5.37, -18.07, 12.27, 37.70, 19.14, 41.04,
35.75945234298706,0.90, -0.03, -0.02, 34.67, -15.44, 16.54, 39.14, 16.59, 39.31,
35.869070529937744,1.03, 0.03, -0.03, 17.70, 9.58, -7.69, 39.21, 14.66, 39.05,
35.978856563568115,0.91, -0.06, 0.04, 10.31, 6.90, -8.91, 38.83, 14.44, 39.65,
36.089601278305054,0.94, -0.03, 0.09, -4.27, 12.82, -13.31, 38.35, 15.34, 40.25,
36.200329303741455,0.98, 0.01, -0.01, -8.00, 3.05, -8.67, 37.07, 16.09, 40.38,
36.31015872955322,1.24, -0.10, 0.10, -11.84, -24.96, -11.23, 36.83, 17.97, 40.60,
36.42110204696655,0.98, -0.23, 0.07, -24.90, -23.80, -10.74, 39.27, 19.34, 38.34,
36.531856060028076,0.92, -0.23, 0.00, -37.23, 16.05, 0.18, 39.70, 20.79, 37.24,
36.64161014556885,0.95, -0.16, 0.08, -15.50, 5.43, 17.09, 39.15, 21.98, 37.93,
36.74976849555969,0.90, -0.13, 0.10, -0.67, 12.15, 10.68, 38.90, 21.95, 38.60,
36.86010718345642,0.98, -0.19, 0.04, 0.18, 1.83, 6.29, 39.01, 20.56, 38.89,
36.970478773117065,1.18, -0.07, 0.12, -11.29, -9.09, 20.63, 38.55, 20.08, 39.12,
37.08035135269165,0.95, 0.09, 0.06, 32.04, -23.62, 23.32, 40.25, 17.44, 36.91,
37.189820289611816,1.00, 0.10, 0.04, 33.39, 12.51, -0.61, 39.47, 14.95, 36.77,
37.299561738967896,0.91, 0.03, 0.11, 9.52, 16.17, -1.40, 39.42, 14.16, 38.26,
37.408469438552856,0.94, 0.07, 0.10, -4.03, 17.03, -12.57, 38.84, 14.17, 38.76,
37.51805520057678,1.02, 0.12, 0.00, 3.97, 5.25, -7.45, 37.41, 15.16, 40.08,
37.62838935852051,1.15, -0.02, 0.16, -2.08, -20.14, -12.88, 38.49, 15.67, 39.44,
37.73962092399597,0.97, -0.12, 0.04, -23.68, -16.36, -19.84, 39.82, 18.26, 37.44,
37.84967541694641,0.96, -0.17, -0.01, -23.68, 19.84, -4.88, 39.61, 19.76, 38.31,
37.95914435386658,0.96, -0.14, 0.06, 2.20, 8.91, 12.39, 39.17, 19.58, 38.11,
38.06951427459717,0.93, -0.13, 0.07, 7.87, 13.00, 7.14, 39.18, 18.58, 38.92,
38.17887902259827,0.99, -0.16, 0.07, -5.62, 2.44, 3.60, 38.33, 18.49, 39.69,
38.28857183456421,1.10, -0.07, 0.10, -26.06, -3.78, 11.29, 37.92, 18.48, 39.59,
38.398186683654785,1.21, 0.05, 0.09, 9.34, -22.46, 10.07, 38.77, 17.99, 39.98,
38.50771689414978,0.87, 0.11, -0.04, 25.39, 1.59, -4.82, 39.21, 16.13, 37.72,
38.616142988204956,0.98, 0.04, 0.06, 25.21, 7.32, -3.17, 39.05, 15.03, 36.98,
38.72616481781006,0.91, -0.02, 0.10, 9.03, 13.73, -12.88, 38.48, 15.15, 37.40,
38.83597707748413,0.97, 0.04, 0.06, 0.92, 4.39, -11.29, 37.96, 15.80, 39.95,
38.947861433029175,1.09, -0.04, 0.08, 5.80, -8.79, -13.12, 38.18, 16.59, 39.47,
39.05817890167236,1.30, -0.23, 0.14, -26.79, -25.82, -5.07, 39.86, 17.87, 38.23,
39.168213844299316,0.71, -0.21, -0.04, -24.48, 5.43, 1.28, 40.22, 19.54, 36.29,
39.278218030929565,1.00, -0.12, 0.04, -22.77, 10.01, 12.82, 40.36, 20.81, 38.57,
39.387317180633545,0.88, -0.10, 0.08, -5.31, 15.99, 7.75, 39.45, 20.31, 38.66,
39.49734568595886,1.01, -0.19, 0.02, -4.76, 12.08, 0.00, 38.98, 20.28, 39.69,
39.60724878311157,1.13, -0.10, 0.05, -6.77, -0.67, 4.33, 37.81, 21.01, 39.78,
39.71720790863037,1.20, -0.03, 0.11, 20.81, -24.29, 8.36, 38.61, 19.25, 39.81,
39.82785773277283,0.82, 0.03, -0.09, 24.96, 0.18, -0.12, 38.96, 17.18, 38.92,
39.93788814544678,0.93, 0.02, 0.01, 23.99, 5.07, -7.93, 38.94, 16.75, 38.85,
40.0470712184906,0.94, -0.00, 0.05, 10.62, 10.07, -10.80, 37.61, 16.20, 39.32,
40.15600275993347,0.98, 0.02, 0.08, 3.42, 2.14, -10.86, 38.01, 16.38, 39.95,
40.26654815673828,1.09, -0.09, 0.06, 4.64, -3.23, -13.85, 37.34, 17.55, 40.64,
40.37619161605835,1.17, -0.16, 0.09, -27.77, -27.53, -3.78, 38.62, 19.18, 39.71,
40.48883533477783,0.73, -0.11, -0.05, -3.54, -3.23, 5.74, 39.51, 20.67, 37.16,
40.598315477371216,1.05, -0.12, 0.00, -15.01, 15.75, 10.07, 39.06, 20.83, 37.67,
40.70851182937622,0.90, -0.08, 0.03, 6.84, 13.12, 7.69, 38.39, 20.21, 40.04,
40.81889533996582,0.98, -0.20, 0.05, 4.76, 7.93, 7.81, 37.52, 19.30, 40.70,
40.929248332977295,1.05, -0.19, 0.01, -20.20, 1.46, 0.00, 37.72, 18.98, 42.24,
41.03916120529175,1.12, -0.06, 0.08, -8.42, -17.64, 16.24, 37.44, 20.43, 40.45,
41.14941596984863,0.88, -0.02, -0.07, 18.74, -15.63, 14.04, 39.26, 18.13, 39.59,
41.259549379348755,1.04, 0.05, -0.02, 24.23, 6.41, -6.65, 38.84, 16.98, 40.25,
41.369619607925415,0.88, -0.01, 0.03, 21.42, 13.37, -6.96, 38.06, 15.84, 40.12,
41.479488372802734,0.96, -0.00, 0.04, 4.58, 7.63, -13.06, 37.77, 16.47, 40.60,
41.589792251586914,1.00, -0.00, 0.00, 2.14, 0.24, -14.71, 36.82, 16.64, 41.16,
41.698967695236206,1.25, -0.09, 0.13, -9.83, -19.90, -9.16, 36.96, 18.08, 41.76,
41.81062936782837,0.88, -0.18, -0.01, -15.81, -7.87, -9.52, 39.16, 19.98, 39.10,
41.92003536224365,1.05, -0.20, -0.04, -34.06, 16.66, -1.53, 39.17, 21.31, 39.94,
42.03086066246033,0.88, -0.11, 0.01, -15.99, 14.71, 12.57, 38.89, 21.69, 40.41,
42.13929629325867,0.95, -0.17, 0.00, -1.77, 12.08, 10.13, 37.82, 21.28, 40.41,
42.24975538253784,1.02, -0.18, -0.05, -4.52, 4.82, 6.77, 37.26, 20.83, 43.01,
42.35922193527222,1.07, -0.07, 0.04, 6.16, -12.15, 17.27, 37.59, 21.35, 40.86,
42.469372034072876,0.98, 0.00, -0.04, 27.16, -17.58, 19.47, 39.11, 17.31, 40.32,
42.57927083969116,1.03, 0.07, -0.09, 21.30, 10.74, -2.75, 38.46, 15.86, 40.21,
42.69040131568909,0.88, 0.00, -0.00, 10.38, 8.36, -3.23, 37.57, 14.66, 40.42,
42.80133605003357,0.95, 0.05, 0.03, -7.63, 6.77, -13.55, 37.40, 15.66, 42.32,
42.911080837249756,1.02, 0.06, -0.03, -10.19, -2.08, -12.45, 36.83, 16.81, 42.18,
43.02124738693237,1.20, 0.02, 0.10, -3.42, -27.65, -8.30, 36.98, 18.48, 41.92,
43.1311719417572,0.92, -0.12, 0.03, -12.63, -17.82, -8.36, 39.37, 19.82, 38.50,
43.24146890640259,1.07, -0.16, -0.06, -23.74, 17.88, 1.77, 39.72, 20.04, 38.54,
43.35175895690918,0.90, -0.08, 0.04, 0.00, 7.32, 4.82, 38.81, 20.21, 40.01,
43.46140503883362,0.96, -0.17, 0.02, 1.77, 7.02, 5.92, 38.39, 19.04, 40.33,
43.571828842163086,1.00, -0.17, -0.01, -11.66, -7.20, 8.67, 37.78, 19.37, 40.98,
43.68255257606506,1.18, -0.03, 0.12, 6.29, -17.94, 18.74, 38.10, 18.51, 39.62,
43.79263496398926,0.83, -0.02, -0.03, 32.04, -17.82, 17.15, 39.78, 15.63, 37.72,
43.900920152664185,1.11, 0.09, 0.09, 1.83, 3.48, -6.16, 38.99, 14.67, 37.66,
44.01248741149902,0.87, 0.04, 0.13, 6.29, 12.45, -7.26, 38.98, 14.77, 36.83,
44.12378191947937,0.96, 0.08, 0.10, -1.71, 13.00, -11.60, 38.72, 15.28, 38.49,
44.23324656486511,1.05, 0.06, 0.01, 13.85, 1.59, -12.15, 37.43, 16.42, 38.93,
44.34320139884949,1.19, -0.01, 0.17, 6.71, -21.18, -10.99, 37.99, 16.49, 39.72,
44.45322394371033,0.92, -0.11, 0.04, 1.89, -7.63, -11.72, 39.25, 17.61, 38.01,
44.564481258392334,1.09, -0.16, -0.02, -9.09, 22.64, -1.89, 39.34, 17.35, 38.27,
44.67328405380249,0.93, -0.13, 0.04, -1.22, 4.39, 6.65, 38.90, 17.33, 39.36,
44.78298807144165,0.92, -0.19, 0.10, -2.20, 4.15, 4.46, 38.85, 16.49, 39.92,
44.89458155632019,0.98, -0.21, 0.09, -23.44, -1.77, 8.42, 38.34, 16.22, 39.62,
45.005666971206665,1.07, -0.05, 0.05, -26.61, -7.26, 7.14, 38.50, 18.19, 39.98,
45.1155846118927,1.09, -0.02, 0.14, 15.14, -28.38, 21.67, 39.20, 17.46, 38.40,
45.225383281707764,1.11, 0.02, -0.01, -13.24, 20.69, 4.27, 39.45, 15.31, 38.18,
45.33569002151489,0.87, 0.06, 0.05, 4.94, 10.68, 4.58, 38.75, 15.01, 39.17,
45.445021867752075,0.96, 0.10, 0.04, -10.25, 10.86, -7.39, 38.17, 15.61, 40.28,
45.55517578125,1.03, 0.15, -0.05, 20.32, -3.36, -8.97, 37.10, 16.20, 40.59,
45.66690993309021,1.01, 0.01, 0.11, 12.45, -22.52, -14.71, 38.44, 15.55, 40.03,
45.77687072753906,1.07, -0.07, 0.08, -3.05, -5.68, -18.49, 39.48, 15.88, 38.62,
45.88684129714966,1.09, -0.09, -0.00, -9.70, 22.46, -11.17, 39.59, 17.66, 39.64,
45.99730086326599,0.89, -0.14, 0.05, 9.34, 8.00, -1.04, 39.20, 17.47, 40.37,
46.10672378540039,0.98, -0.21, 0.07, -0.43, 4.94, 0.37, 38.77, 16.99, 41.44,
46.21742010116577,1.03, -0.22, -0.01, -14.28, -4.15, 8.12, 38.43, 17.31, 40.45,
46.32877731323242,1.17, -0.09, 0.07, -6.47, -17.76, 9.52, 38.70, 18.43, 40.47,
46.439775228500366,0.87, -0.01, -0.10, 14.59, -1.95, 19.17, 38.66, 17.59, 38.26,
46.549460649490356,1.00, 0.04, 0.02, 6.96, 2.44, -1.34, 38.70, 15.70, 38.93,
46.659245014190674,0.92, 0.02, 0.06, 0.73, 16.78, -6.16, 37.84, 15.58, 39.59,
46.768221378326416,0.96, 0.09, 0.02, 2.75, 5.98, -3.36, 37.04, 15.80, 40.93,
46.87751340866089,1.20, 0.05, 0.06, 13.18, -12.45, -9.58, 37.50, 15.94, 40.21,
46.98763847351074,1.16, -0.27, 0.10, -13.85, -16.66, -17.94, 38.73, 16.14, 39.73,
47.09766602516174,0.89, -0.15, -0.07, -38.51, 14.40, -9.77, 39.83, 17.97, 38.32,
47.207043170928955,0.99, -0.09, 0.04, -22.77, 2.26, 7.69, 37.60, 20.70, 39.09,
47.316577434539795,0.93, -0.11, 0.12, -3.60, 3.78, 11.72, 38.18, 20.63, 39.49,
47.42619967460632,1.02, -0.22, 0.07, 5.92, -2.69, 8.67, 38.13, 18.95, 39.54,
47.53662347793579,1.33, -0.03, 0.15, -5.55, -18.68, 12.70, 37.40, 19.09, 38.90,
47.6462664604187,0.84, 0.11, -0.04, 34.67, -2.20, 11.96, 38.71, 16.89, 37.32,
47.75656509399414,0.97, 0.01, 0.09, 31.86, 8.97, -10.68, 38.24, 15.23, 37.81,
47.866084814071655,0.89, -0.01, 0.10, 15.63, 20.94, -14.10, 37.35, 15.03, 38.64,
47.975892782211304,0.95, 0.02, 0.03, 1.34, 6.04, -10.56, 35.84, 14.99, 39.59,
48.085909843444824,1.23, -0.08, 0.13, -4.88, -4.76, -13.49, 35.88, 16.66, 40.28,
48.19674563407898,0.98, -0.27, 0.14, -5.19, -15.63, -14.77, 37.93, 17.66, 38.56,
48.30621290206909,0.87, -0.14, 0.02, -32.47, 21.18, -6.10, 38.27, 19.18, 39.50,
48.416141986846924,0.93, -0.22, -0.00, -13.73, 1.77, 10.19, 36.79, 20.17, 38.87,
48.52637577056885,0.95, -0.16, 0.09, -17.70, 15.81, 14.47, 36.83, 20.02, 38.48,
48.63489007949829,1.02, -0.24, 0.02, -19.04, -4.15, 6.65, 36.01, 20.34, 40.71,
48.74484872817993,1.44, 0.14, 0.06, -23.07, -16.78, 17.15, 36.72, 21.45, 39.16,
48.85568952560425,0.85, 0.11, -0.17, 43.64, -1.53, 22.58, 37.48, 18.44, 36.99,
48.96560478210449,0.95, 0.01, 0.05, 43.21, -2.14, 5.00, 37.10, 15.69, 38.77,
49.07411980628967,0.92, 0.00, 0.11, 1.77, 6.65, -5.25, 37.32, 13.59, 38.68,
49.18462657928467,0.94, 0.12, 0.05, -12.27, -1.22, -12.15, 36.68, 14.98, 39.20,
49.29302000999451,1.31, 0.02, 0.12, 4.58, -20.45, -10.44, 37.74, 15.99, 39.12,
49.403202533721924,0.69, -0.22, 0.04, -11.35, -17.27, -5.55, 38.95, 17.83, 37.37,
49.51411247253418,1.12, -0.09, 0.04, -25.51, 7.93, -6.23, 38.24, 19.48, 38.04,
49.62399625778198,0.84, -0.06, 0.13, -17.03, 14.83, 11.41, 37.71, 19.95, 38.39,
49.732872009277344,0.94, -0.13, 0.09, 0.06, 0.98, 16.05, 37.26, 19.57, 38.43,
49.84372639656067,1.13, -0.15, 0.08, -10.86, -11.41, 8.61, 37.56, 18.24, 38.90,
49.953463077545166,0.87, 0.21, -0.00, 21.42, -7.63, 10.31, 37.33, 18.58, 37.05,
50.06326985359192,0.98, 0.04, 0.06, 28.75, 7.26, -8.61, 36.02, 16.97, 38.35,
50.17208123207092,0.90, 0.04, 0.10, 13.37, 14.40, -5.49, 36.05, 15.61, 39.54,
50.282203912734985,0.91, 0.08, 0.09, 4.46, 7.93, -5.74, 35.45, 15.80, 38.96,
50.39405584335327,1.24, 0.06, 0.11, 11.11, -3.72, -9.40, 35.69, 16.05, 39.11,
50.504087686538696,1.09, -0.15, 0.07, 0.31, -19.04, -13.31, 36.36, 16.77, 39.10,
50.61471748352051,0.92, -0.19, -0.03, -27.95, 19.65, -12.82, 37.39, 16.72, 36.96,
50.72365069389343,0.92, -0.10, 0.05, -9.16, 6.29, 14.71, 37.07, 19.04, 38.65,
50.834219455718994,0.96, -0.12, 0.07, 0.67, 5.68, 5.86, 36.88, 18.35, 38.84,
50.943270444869995,1.01, -0.23, 0.08, -6.53, -8.61, 5.13, 36.88, 17.68, 38.98,
51.053539514541626,1.46, 0.17, 0.16, -3.60, -22.09, 13.00, 37.87, 17.93, 38.20,
51.164565086364746,0.85, 0.05, -0.03, 36.25, 10.80, 16.54, 38.81, 15.59, 36.79,
51.274091958999634,0.90, 0.00, 0.05, 35.16, -0.37, 9.09, 38.24, 13.32, 37.93,
51.38304829597473,0.93, -0.01, 0.11, -11.96, 11.23, -4.39, 37.49, 11.39, 38.72,
51.4931743144989,0.99, 0.13, 0.06, -26.12, 1.46, -16.36, 37.01, 13.22, 38.50,
51.60356879234314,1.29, 0.04, 0.14, -0.79, -15.26, -15.99, 37.19, 15.50, 38.90,
51.71346402168274,0.80, -0.25, 0.04, -8.67, -9.28, -17.52, 38.73, 17.40, 37.82,
51.823708295822144,1.04, -0.07, 0.01, -24.90, 8.67, -4.15, 38.21, 19.63, 38.22,
51.932910680770874,0.83, -0.15, 0.12, -16.78, 9.77, 11.54, 38.16, 20.34, 38.96,
52.043678760528564,0.90, -0.15, 0.08, -15.50, 2.81, 13.37, 37.50, 20.36, 38.55,
52.153544425964355,1.11, -0.20, 0.14, -34.18, -5.98, 8.42, 37.76, 20.12, 38.50,
52.26372575759888,1.04, 0.31, 0.01, 17.52, -7.69, 14.53, 38.09, 20.35, 37.72,
52.372806549072266,1.02, 0.01, 0.01, 48.10, 19.59, 11.66, 37.68, 16.72, 38.32,
52.48252773284912,0.89, 0.10, 0.04, 38.45, 17.76, -1.40, 36.73, 13.70, 39.45,
52.59153962135315,0.90, 0.08, 0.10, 21.85, 6.59, -11.35, 35.73, 12.48, 40.50,
52.70108461380005,1.22, 0.09, 0.07, 18.13, -4.09, -21.36, 36.06, 12.67, 40.45,
52.81162619590759,1.30, -0.27, 0.09, -19.10, -15.01, -17.27, 37.59, 13.83, 39.51,
52.920846700668335,0.88, -0.18, -0.12, -54.02, 18.19, -8.36, 37.89, 16.48, 37.73,
53.03090190887451,0.95, -0.10, 0.03, -38.82, 0.06, 12.82, 37.16, 18.27, 38.17,
53.14141297340393,0.96, -0.06, 0.11, -30.58, 1.65, 5.07, 36.85, 19.71, 39.34,
53.25032711029053,1.02, -0.18, 0.07, -12.08, -11.78, 9.34, 36.25, 20.79, 39.33,
53.360694885253906,1.33, 0.15, 0.12, -17.15, -14.65, 8.30, 36.93, 21.13, 36.80,
53.470292806625366,0.92, 0.09, -0.05, 44.49, 11.90, 19.78, 37.51, 18.19, 36.45,
53.58032250404358,0.92, 0.00, 0.06, 46.02, 4.64, -5.07, 37.26, 15.52, 37.95,
53.69015598297119,0.87, 0.03, 0.13, 10.25, 2.20, -11.17, 36.80, 14.45, 36.95,
53.7997362613678,1.11, 0.09, 0.09, 1.28, 0.00, -17.21, 37.62, 15.86, 38.00,
53.910481214523315,1.29, -0.16, 0.12, -1.28, -22.16, -5.19, 37.61, 16.78, 37.41,
54.02029728889465,0.67, -0.26, -0.02, -25.82, -1.95, -4.64, 39.14, 17.05, 35.08,
54.13064360618591,1.03, -0.05, 0.04, -42.66, 9.40, 0.49, 38.70, 20.10, 35.25,
54.23829984664917,0.86, -0.02, 0.12, -17.88, 14.04, 6.35, 38.21, 21.22, 38.13,
54.34788203239441,0.94, -0.12, 0.09, 3.78, -3.36, 10.31, 37.74, 20.92, 37.38,
54.45847821235657,1.12, -0.10, 0.12, -13.55, -10.99, 4.46, 38.06, 20.83, 37.35,
54.56809210777283,0.89, 0.19, 0.02, 43.95, -13.92, 16.66, 38.95, 19.47, 36.80,
54.67850160598755,1.10, -0.01, 0.06, 45.96, 11.23, -1.59, 39.04, 16.24, 35.75,
54.78821349143982,0.85, 0.05, 0.10, 24.23, 19.65, -4.09, 38.05, 14.39, 36.52,
54.899691343307495,0.90, 0.07, 0.06, 4.82, 12.08, -11.60, 36.93, 14.32, 40.59,
55.01058530807495,1.21, 0.06, 0.09, 1.77, -16.48, -14.22, 37.12, 15.93, 40.06,
55.119990825653076,1.08, -0.21, 0.07, -9.95, -18.31, -9.95, 38.27, 16.98, 38.49,
55.229722023010254,0.94, -0.10, -0.02, -42.85, 15.50, -5.49, 38.49, 18.02, 38.50,
55.34114623069763,0.93, -0.15, 0.09, -41.63, 6.16, 15.08, 38.65, 19.76, 37.67,
55.450403690338135,0.86, 0.01, 0.11, -11.54, 0.06, 5.43, 38.40, 20.20, 37.61,
55.55927586555481,1.12, -0.18, 0.15, -6.16, -5.13, -1.46, 37.71, 20.72, 39.62,
55.6685745716095,1.29, 0.25, 0.11, 12.57, -20.81, 2.69, 38.18, 20.61, 37.08,
55.778122901916504,0.97, 0.08, 0.01, 39.55, 28.44, 5.37, 38.39, 18.19, 37.49,
55.88738799095154,0.80, 0.02, 0.06, 29.91, 5.07, -5.49, 37.92, 16.05, 38.11,
55.9965980052948,0.91, 0.02, 0.10, 9.52, 13.85, -8.54, 37.26, 15.76, 39.76,
56.105122566223145,1.17, 0.11, 0.05, -0.55, -2.14, -11.11, 36.61, 16.48, 40.58,
56.21521353721619,1.41, -0.26, 0.02, -2.14, -20.20, -9.46, 37.32, 16.92, 39.70,
56.324371099472046,0.78, -0.16, -0.08, -31.01, 5.68, -5.62, 38.26, 18.08, 37.76,
56.433825969696045,0.98, -0.09, 0.06, -36.19, 5.80, 14.53, 37.71, 20.17, 37.46,
56.54446077346802,0.91, -0.00, 0.13, -12.88, 9.70, 6.10, 37.27, 20.36, 39.22,
56.653194427490234,1.09, -0.18, 0.10, -6.29, 1.22, 13.00, 37.44, 19.90, 38.76,
56.76200985908508,1.42, 0.09, 0.14, -6.04, -19.17, 1.83, 37.68, 20.23, 38.18,
56.87248969078064,0.83, 0.15, -0.05, 27.71, 10.07, 9.95, 38.32, 18.82, 37.16,
56.98158049583435,0.88, 0.03, 0.05, 38.33, 3.36, -8.61, 37.07, 16.70, 38.13,
57.0898072719574,0.93, -0.00, 0.11, 17.09, 14.34, -5.62, 36.36, 15.42, 40.19,
57.20062804222107,1.09, 0.10, -0.01, 5.74, -2.01, -7.20, 36.61, 15.53, 39.23,
57.31133675575256,1.40, -0.20, 0.03, -5.07, -19.04, -5.80, 38.09, 15.58, 39.69,
57.42152690887451,0.80, -0.23, -0.11, -23.32, 11.35, -12.21, 38.42, 16.87, 37.46,
57.53101968765259,0.88, -0.01, 0.03, -34.18, 6.35, 19.17, 37.87, 18.40, 38.51,
57.64048886299133,0.94, -0.03, 0.10, -12.70, 11.84, 5.49, 37.01, 18.95, 38.07,
57.75004529953003,1.08, -0.17, 0.05, 0.98, -3.05, 9.58, 36.74, 19.07, 39.65,
57.85911154747009,1.40, 0.22, 0.09, 6.23, -16.30, 1.16, 37.38, 18.90, 37.30,
57.96915054321289,0.96, 0.07, -0.10, 48.10, 21.55, 10.74, 37.50, 16.22, 37.68,
58.07865524291992,0.83, 0.05, 0.08, 28.20, -1.22, -5.37, 36.73, 14.11, 37.65,
58.1889374256134,0.89, 0.03, 0.10, 6.96, 9.16, -11.78, 36.83, 13.07, 38.66,
58.298823833465576,1.19, 0.08, 0.06, 0.18, 2.69, -18.86, 36.32, 13.93, 40.15,
58.40812683105469,1.42, -0.23, 0.02, 0.73, -16.05, -7.75, 36.79, 15.37, 39.45,
58.516345739364624,0.75, -0.20, -0.09, -27.22, 12.51, -3.97, 37.52, 16.20, 38.78,
58.62610173225403,0.94, -0.18, 0.03, -37.48, 5.43, 9.52, 36.87, 17.33, 39.70,
58.73562407493591,0.93, -0.05, 0.11, -35.16, 5.37, 5.19, 36.27, 19.32, 39.66,
58.8455536365509,1.20, -0.20, 0.13, -22.52, -17.76, 14.16, 37.04, 19.41, 38.79,
58.955581188201904,1.11, 0.34, 0.12, 16.48, -33.26, 11.60, 37.92, 18.74, 37.17,
59.06537389755249,1.04, 0.02, 0.13, 55.11, 20.69, 12.21, 39.18, 15.66, 35.17,
59.17448353767395,0.65, 0.05, 0.14, 49.68, 10.62, -0.31, 38.49, 12.26, 35.63,
59.2828164100647,0.91, 0.05, 0.13, 6.10, 3.11, -8.91, 38.43, 10.42, 37.44,
59.39270615577698,1.27, 0.20, 0.22, 2.44, -4.46, -13.06, 38.32, 12.04, 37.41,
59.50314903259277,1.10, -0.09, 0.11, -9.40, -20.94, -12.21, 39.36, 13.01, 35.86,
59.61277461051941,1.07, -0.02, 0.06, -14.10, 19.59, -17.58, 39.79, 14.14, 36.88,
59.723021030426025,0.83, -0.09, 0.11, -21.61, 7.93, 13.73, 39.39, 14.97, 37.19,
59.83353924751282,0.93, -0.11, 0.17, -6.77, 2.26, 14.95, 38.79, 14.54, 37.27,
59.941837549209595,1.25, -0.05, 0.22, -14.47, -7.32, 6.04, 38.87, 13.93, 37.02,
60.052464723587036,0.94, 0.32, 0.15, 7.39, -18.13, -0.43, 39.78, 13.28, 35.75,
60.16217231750488,1.04, 0.06, 0.08, 24.23, 28.44, -5.37, 39.32, 12.37, 35.84,
60.27237558364868,0.79, 0.06, 0.10, 13.18, 19.29, -3.48, 38.51, 11.43, 36.79,
60.38326597213745,0.92, 0.13, 0.03, 6.65, 9.40, -14.53, 37.24, 11.74, 38.31,
60.49362015724182,1.24, 0.11, 0.20, 12.45, -10.56, -15.56, 37.76, 12.48, 39.31,
60.60313129425049,0.91, -0.11, 0.04, -11.29, -17.58, -11.54, 39.87, 14.10, 37.46,
60.71362805366516,1.06, -0.08, 0.07, -31.74, 11.17, -18.62, 39.79, 16.49, 36.55,
60.82330584526062,0.84, -0.10, 0.15, -19.17, 6.96, 8.91, 39.77, 17.24, 37.78,
60.933571338653564,0.87, -0.15, 0.17, -0.37, -4.27, 10.68, 39.04, 17.11, 37.18,
61.043577909469604,1.24, -0.17, 0.14, -31.19, -2.69, 4.09, 39.12, 16.55, 37.16,
61.153234243392944,1.06, 0.09, 0.15, 5.80, -29.42, 22.03, 40.11, 17.02, 36.35,
61.26363182067871,1.02, 0.12, 0.06, 9.16, 27.10, 17.76, 40.65, 14.59, 35.01,
61.37167978286743,0.84, 0.06, 0.08, 7.26, 9.89, 0.49, 38.94, 12.35, 37.24,
61.48107171058655,0.92, 0.16, 0.14, -3.91, 12.70, -9.34, 38.77, 13.37, 37.04,
61.59062314033508,1.10, 0.22, 0.05, 12.94, 4.03, -16.72, 39.01, 14.59, 38.54,
61.70120692253113,1.27, -0.08, 0.20, 12.51, -21.73, -11.72, 39.38, 14.00, 38.32,
61.81060433387756,0.83, -0.21, -0.02, -27.71, -2.81, -19.35, 40.91, 15.77, 37.65,
61.92050004005432,1.08, 0.01, 0.10, -27.95, -3.48, -22.83, 40.08, 18.75, 36.99,
62.0305118560791,0.80, -0.10, 0.18, -5.13, 6.59, 8.42, 40.56, 20.45, 36.96,
62.140458822250366,0.92, -0.25, 0.12, -1.65, 5.92, 7.26, 39.90, 19.32, 36.69,
62.250412464141846,1.14, -0.07, 0.20, -23.99, -3.97, 7.20, 39.99, 20.06, 37.62,
62.358967542648315,1.12, 0.11, 0.19, 31.43, -16.17, 17.15, 40.31, 18.62, 35.51,
62.46905732154846,1.02, 0.12, 0.08, 26.18, 31.56, 6.35, 40.23, 16.14, 36.34,
62.578245639801025,0.84, 0.01, 0.02, 20.45, 21.61, 5.19, 40.09, 13.20, 37.19,
62.6872763633728,0.95, 0.13, 0.09, 10.86, 12.15, -15.38, 38.64, 12.39, 38.99,
62.79722738265991,1.09, 0.08, -0.08, -1.53, -7.32, -18.68, 38.67, 14.45, 40.69,
62.90754318237305,1.25, -0.18, 0.12, -6.16, -29.42, -9.77, 40.70, 15.00, 37.70,
63.017467737197876,0.95, -0.27, 0.02, -34.00, 11.05, -5.80, 40.94, 17.38, 37.22,
63.12655758857727,0.94, -0.16, -0.02, -39.92, 6.90, 0.61, 40.50, 19.29, 37.45,
63.236422538757324,0.87, -0.07, 0.10, -16.97, 10.86, 2.99, 40.01, 20.96, 38.33,
63.34640669822693,1.14, -0.20, 0.07, -5.92, -9.03, 5.80, 39.32, 21.42, 39.00,
63.4553325176239,1.19, 0.05, 0.21, 6.59, -26.37, 12.02, 40.83, 20.84, 37.65,
63.5646014213562,0.83, -0.01, -0.02, 32.17, 11.96, 13.92, 40.86, 18.03, 37.08,
63.67445611953735,0.87, 0.03, 0.05, 43.03, 20.75, 4.82, 40.31, 16.27, 37.93,
63.784467935562134,0.97, -0.02, 0.03, 9.09, 20.57, -9.09, 38.75, 14.97, 39.43,
63.892818212509155,1.12, 0.07, -0.10, -17.88, -11.60, -18.13, 38.55, 16.33, 41.49,
64.00276350975037,1.24, -0.26, 0.14, -8.24, -21.97, -10.86, 39.28, 18.64, 40.09,
64.11554718017578,1.01, -0.11, 0.07, -38.15, 15.20, -5.55, 40.34, 19.67, 37.35,
64.22532510757446,0.89, -0.18, 0.08, -27.71, 18.80, 0.98, 38.88, 21.13, 39.17,
64.33578515052795,0.93, -0.18, 0.02, -18.01, 19.10, 7.20, 37.35, 22.25, 39.28,
64.4453113079071,1.18, -0.19, -0.01, -24.78, -0.85, 1.46, 36.56, 22.99, 40.53,
64.55503368377686,1.16, 0.16, 0.02, 11.47, -19.35, 2.26, 36.52, 23.93, 40.81,
64.66405010223389,0.95, 0.01, 0.02, 39.00, 12.33, 0.61, 36.87, 21.69, 38.90,
64.7729275226593,0.83, 0.02, 0.03, 32.29, 12.02, -2.75, 36.89, 20.00, 39.27,
64.88249182701111,0.97, 0.02, 0.04, 16.48, 9.03, -3.36, 35.29, 18.23, 41.67,
64.9908607006073,1.19, 0.02, 0.01, -2.38, -3.72, -11.54, 34.99, 18.14, 41.99,
65.09962487220764,1.24, -0.23, -0.02, -1.10, -20.08, -2.93, 36.12, 18.91, 40.72,
65.21158933639526,0.93, -0.18, -0.05, -39.86, 11.17, 4.94, 37.24, 18.84, 41.10,
65.32130193710327,0.86, -0.05, -0.01, -15.75, 2.44, 13.18, 36.27, 19.59, 40.44,
65.43159890174866,0.98, -0.08, -0.01, 0.49, -1.83, 13.61, 35.97, 19.56, 41.13,
65.54153180122375,1.08, -0.10, 0.10, -8.30, -20.94, 8.85, 36.49, 18.90, 40.47,
65.65179920196533,0.96, 0.28, -0.04, 41.20, -14.59, 25.02, 37.89, 16.09, 38.77,
65.7608699798584,1.02, 0.03, 0.00, 44.01, 14.04, -0.85, 36.82, 13.28, 39.77,
65.87124371528625,0.86, 0.06, 0.07, 10.50, 15.32, -5.68, 36.18, 11.40, 40.34,
65.98121809959412,0.93, 0.13, 0.04, -5.07, 5.62, -13.61, 36.02, 12.65, 40.44,
66.09082627296448,1.19, 0.14, 0.08, 8.97, -17.94, -15.93, 35.86, 14.10, 40.56,
66.20224905014038,0.83, -0.22, -0.06, -12.88, -12.21, -17.33, 37.17, 15.42, 39.92,
66.31181168556213,1.02, -0.01, -0.02, -45.10, 6.35, -2.69, 37.16, 18.58, 39.69,
66.42218589782715,0.83, -0.05, 0.04, -10.93, 5.43, 3.60, 37.67, 20.19, 39.42,
66.53256225585938,0.88, -0.12, 0.04, 1.16, -7.93, 9.83, 36.93, 18.99, 39.61,
66.64171195030212,1.13, -0.13, 0.07, -19.59, -21.67, 7.14, 37.68, 18.76, 38.77,
66.75195479393005,0.89, 0.19, -0.05, 27.83, -16.97, 19.59, 38.37, 17.80, 37.71,
66.8623583316803,1.02, 0.03, 0.05, 31.01, 4.03, 6.65, 37.93, 16.09, 37.78,
66.97053813934326,0.86, 0.01, 0.08, 9.52, 13.37, 2.62, 36.88, 13.56, 37.61,
67.0801784992218,0.90, 0.12, 0.11, -4.09, 2.69, -4.09, 36.96, 13.40, 36.91,
67.18942523002625,1.22, 0.18, 0.16, 11.66, -5.49, -11.47, 37.11, 14.20, 38.38,
67.29846429824829,0.94, -0.12, 0.07, 2.99, -14.47, -14.16, 38.22, 13.35, 36.47,
67.40836119651794,1.10, -0.15, 0.05, -38.39, 12.08, -9.70, 38.23, 15.19, 37.84,
67.51826739311218,0.83, -0.02, 0.10, -23.86, 4.27, 4.46, 37.46, 17.15, 37.82,
67.62651538848877,0.93, -0.09, 0.10, 1.34, 5.00, 3.97, 37.54, 17.82, 38.13,
67.73582863807678,1.15, -0.19, 0.19, -13.73, -10.13, 2.20, 37.41, 17.02, 38.95,
67.84547090530396,1.13, 0.23, 0.15, 9.70, -16.66, 8.18, 37.68, 16.92, 36.99,
67.95385360717773,1.06, 0.04, 0.06, 29.11, 26.73, 7.93, 37.81, 14.49, 36.51,
68.06256937980652,0.75, 0.03, 0.10, 16.60, 9.58, 2.75, 37.22, 11.87, 37.33,
68.17192697525024,0.90, 0.08, 0.12, -9.46, 10.56, -10.13, 37.48, 12.40, 38.24,
68.2819664478302,1.17, 0.16, 0.10, 6.04, -0.12, -17.21, 37.13, 13.67, 38.60,
68.39176058769226,1.29, -0.23, 0.10, -3.66, -16.42, -18.92, 37.95, 14.82, 38.76,
68.5016655921936,0.95, -0.16, -0.05, -32.41, 16.78, -23.13, 38.78, 17.92, 37.96,
68.61217284202576,0.92, -0.11, 0.06, -21.30, -4.52, 12.88, 38.35, 18.69, 37.34,
68.72255444526672,0.90, -0.08, 0.14, -0.49, 3.72, 7.75, 37.81, 18.95, 37.57,
68.8319890499115,1.00, -0.20, 0.13, 1.53, -3.30, 5.68, 38.07, 17.99, 37.41,
68.9423451423645,1.36, 0.03, 0.21, -17.21, -14.95, 7.75, 38.09, 18.57, 37.11,
69.05068349838257,0.82, 0.12, -0.05, 22.83, 13.31, 24.23, 39.26, 17.61, 36.05,
69.16003847122192,0.92, -0.00, 0.08, 34.00, 3.72, -2.50, 38.73, 13.93, 36.76,
69.26968955993652,0.86, -0.03, 0.16, 2.69, 16.05, -13.06, 37.79, 13.61, 37.98,
69.37853193283081,0.98, 0.13, 0.01, 0.49, -1.04, -25.21, 37.12, 15.83, 39.79,
69.48925733566284,1.50, -0.17, 0.05, 17.27, -13.55, -12.63, 38.31, 16.36, 38.82,
69.59861135482788,0.69, -0.26, -0.08, -18.37, -7.39, -5.37, 38.88, 16.72, 38.15,
69.70922350883484,1.00, -0.13, 0.05, -33.81, 1.77, 7.08, 38.56, 18.76, 38.40,
69.81927871704102,0.88, -0.07, 0.13, -19.47, 5.92, 9.77, 38.76, 19.52, 37.73,
69.92833209037781,0.99, -0.20, 0.10, -7.32, -4.94, 13.73, 37.96, 19.02, 38.00,
70.0365698337555,1.29, -0.04, 0.14, -21.00, -11.47, 11.29, 38.49, 19.63, 36.94,
70.14736819267273,0.81, 0.20, -0.03, 35.52, -1.95, 21.36, 38.83, 17.92, 36.02,
70.25655603408813,0.92, 0.01, 0.07, 34.42, 7.45, -5.25, 37.77, 15.88, 38.11,
70.36573266983032,0.89, 0.02, 0.13, 8.54, 12.08, -8.42, 37.83, 15.21, 38.81,
70.47583723068237,0.96, 0.13, 0.03, 4.94, 6.35, -12.63, 36.78, 15.27, 38.94,
70.58469724655151,1.34, -0.03, 0.15, 19.17, -19.23, -1.71, 36.60, 15.78, 39.26,
70.69386172294617,0.77, -0.24, -0.03, -18.86, -4.46, 3.23, 38.38, 15.66, 37.57,
70.80452990531921,1.05, -0.02, 0.03, -44.62, 2.75, -2.08, 38.10, 17.54, 37.93,
70.91378021240234,0.82, -0.02, 0.08, -25.57, 4.70, 4.88, 38.04, 19.12, 38.21,
71.02345275878906,0.90, -0.08, 0.07, -3.66, -6.41, 9.09, 38.02, 19.07, 39.17,
71.13324308395386,1.33, -0.06, 0.10, -13.67, -11.05, 7.39, 38.12, 18.70, 39.05,
71.24331474304199,0.89, 0.17, -0.08, 37.78, -1.89, 11.96, 38.71, 19.23, 36.74,
71.35275793075562,0.91, -0.02, 0.04, 50.72, 0.98, -12.33, 38.32, 16.04, 38.18,
71.4737479686737,0.91, -0.04, 0.11, 22.09, 12.76, -8.30, 38.17, 14.84, 37.19,
71.58345770835876,0.96, 0.07, 0.05, 0.61, 4.58, -10.19, 37.54, 15.21, 38.42,
71.69270205497742,1.32, -0.08, 0.13, 22.89, -27.10, -1.34, 38.62, 15.19, 38.24,
71.80218005180359,0.76, -0.25, -0.01, -27.16, -5.68, -1.22, 39.61, 15.84, 37.29,
71.91172337532043,1.08, -0.03, 0.03, -39.12, 1.10, 3.66, 39.06, 18.64, 38.66,
72.02215433120728,0.81, -0.07, 0.12, -21.61, 5.37, 5.92, 38.93, 18.15, 37.61,
72.13200211524963,0.92, -0.15, 0.06, -4.27, 0.31, 5.62, 38.66, 18.71, 38.17,
72.24209213256836,1.07, -0.08, 0.15, -15.20, -12.15, 11.60, 38.60, 19.34, 37.32,
72.35163497924805,0.89, 0.18, 0.01, 39.61, -21.79, 20.14, 39.10, 18.03, 36.44,
72.46124291419983,1.10, -0.03, 0.04, 28.75, 5.68, -1.65, 38.75, 15.04, 35.99,
72.57060122489929,0.80, 0.06, 0.11, 4.64, 7.81, 0.18, 38.29, 13.96, 35.99,
72.68039631843567,0.89, 0.13, 0.15, -0.37, 10.93, -8.54, 37.19, 13.09, 37.41,
72.78996872901917,1.22, 0.15, 0.10, 15.26, 4.88, -12.15, 37.17, 14.18, 38.71,
72.89925742149353,1.16, -0.28, 0.08, -2.56, -22.95, -10.31, 38.50, 13.94, 38.05,
73.01021695137024,1.05, -0.09, -0.03, -26.49, 13.49, -11.60, 38.64, 16.21, 38.43,
73.12103748321533,0.87, -0.11, 0.08, -24.17, 0.00, 17.27, 38.39, 17.53, 37.34,
73.23111200332642,0.87, -0.01, 0.19, -13.18, -1.16, 6.10, 37.74, 17.52, 38.05,
73.34203147888184,1.23, -0.19, 0.15, -10.80, -0.31, 9.58, 37.94, 17.37, 37.76,
73.45229125022888,1.20, 0.20, 0.22, -4.70, -25.63, 1.34, 38.68, 17.58, 35.38,
73.5621554851532,0.99, 0.11, 0.04, 30.15, 27.34, 4.88, 38.95, 15.95, 36.85,
73.6710798740387,0.85, 0.09, 0.09, 33.39, 6.41, -6.23, 38.28, 15.27, 36.94,
73.78020358085632,0.87, 0.04, 0.15, 13.12, 15.20, -5.80, 37.34, 13.76, 37.00,
73.88926315307617,1.20, 0.11, 0.09, 7.69, 6.96, -15.69, 36.93, 14.34, 37.83,
73.99958038330078,1.24, -0.24, 0.11, -0.73, -15.93, -4.09, 37.79, 14.64, 38.45,
74.10932922363281,0.87, -0.25, -0.10, -24.84, 11.47, -17.64, 38.77, 16.54, 37.30,
74.21925234794617,0.90, -0.08, 0.03, -17.33, -4.33, 7.87, 37.63, 18.43, 37.51,
74.329261302948,0.90, -0.09, 0.15, -8.18, 11.78, 4.76, 37.82, 18.16, 38.92,
74.43868803977966,0.97, -0.20, 0.02, -3.42, -2.08, 7.51, 37.35, 18.40, 39.03,
74.54855370521545,1.42, 0.00, 0.10, -15.93, -8.12, 9.95, 37.85, 18.38, 38.28,
74.65909767150879,0.90, 0.08, -0.09, 31.86, 5.55, 13.37, 38.73, 17.79, 38.28,
74.76864838600159,0.94, 0.03, 0.03, 23.93, 2.56, -3.54, 37.66, 14.89, 38.43,
74.87867856025696,0.88, 0.00, 0.09, 9.28, 14.47, -4.09, 37.35, 15.04, 39.17,
74.98889017105103,0.97, 0.07, 0.06, -5.74, 1.16, -6.16, 36.76, 15.28, 40.36,
75.09802508354187,1.28, 0.01, 0.12, 10.74, -17.46, -6.10, 37.21, 15.78, 39.64,
75.20682406425476,0.79, -0.26, -0.08, -19.84, -7.69, -5.80, 39.04, 15.82, 38.13,
75.31744337081909,1.02, -0.04, 0.00, -42.05, -2.14, -4.03, 38.68, 18.57, 37.82,
75.42673134803772,0.83, -0.07, 0.09, -22.34, 9.40, 4.82, 38.50, 19.76, 39.12,
75.53597474098206,0.88, -0.14, 0.06, -7.45, -0.79, 2.08, 38.51, 20.45, 38.62,
75.64560103416443,1.13, -0.15, 0.15, -29.36, -11.78, -1.46, 38.66, 21.48, 38.07,
75.75574588775635,0.91, 0.08, 0.01, 15.56, -18.74, 18.92, 39.75, 21.97, 35.18,
75.86644434928894,1.09, 0.02, 0.03, 27.40, 18.55, -6.59, 38.89, 20.29, 36.84,
75.97516131401062,0.81, 0.01, 0.09, 19.35, 11.90, -6.59, 38.56, 18.62, 38.51,
76.08358907699585,0.93, 0.02, 0.09, 2.01, 11.90, -7.14, 37.46, 19.01, 38.75,
76.19327735900879,1.23, 0.08, 0.06, 9.40, 2.38, -9.58, 37.79, 19.41, 39.44,
76.30182814598083,1.23, -0.21, 0.15, -5.86, -13.73, -14.40, 38.85, 19.76, 37.56,
76.41169381141663,1.02, -0.32, -0.11, -39.12, 20.26, -5.07, 38.60, 20.65, 37.44,
76.52155923843384,0.81, -0.05, 0.05, -30.27, 3.17, 9.77, 38.27, 22.94, 37.66,
76.63156294822693,0.93, -0.11, 0.11, -4.46, 5.07, 0.98, 38.17, 22.86, 37.48,
76.74124360084534,1.00, -0.18, 0.17, -11.60, -6.77, -1.83, 37.57, 23.11, 38.93,
76.85135912895203,1.32, -0.04, 0.14, 2.62, -22.77, -2.08, 38.26, 24.08, 36.94,
76.96085238456726,0.87, -0.04, -0.08, 35.40, 9.95, 18.43, 39.42, 21.52, 38.11,
77.07064056396484,0.91, -0.06, 0.07, 27.10, 1.83, 2.01, 38.56, 20.21, 37.67,
77.18133497238159,0.91, -0.06, 0.08, 10.74, 16.66, -4.76, 38.22, 18.80, 38.26,
77.291433095932,0.95, 0.03, -0.01, 3.17, -13.85, -6.59, 37.72, 19.19, 39.64,
77.40035343170166,1.30, -0.05, 0.11, 13.49, -17.46, 4.70, 37.95, 19.69, 39.40,
77.51029896736145,0.76, -0.24, 0.01, -5.49, -11.96, 3.91, 39.05, 18.36, 39.10,
77.62044882774353,1.04, -0.08, 0.02, -44.62, 4.64, 4.33, 38.85, 19.87, 37.11,
77.72952675819397,0.86, -0.02, 0.08, -25.45, 14.59, 2.81, 38.75, 20.90, 38.42,
77.83965039253235,0.97, -0.18, 0.06, -7.45, 5.37, 4.58, 38.37, 20.80, 39.29,
77.95043659210205,1.09, -0.08, 0.11, -16.30, -17.70, 7.02, 38.26, 21.57, 38.43,
78.0598497390747,0.86, 0.11, -0.03, 53.83, -9.09, 36.93, 38.67, 20.31, 35.99,
78.16861891746521,1.10, -0.00, 0.02, 44.98, 10.07, 11.78, 38.64, 15.01, 38.06,
78.27749514579773,0.84, 0.07, 0.09, 13.06, 13.43, -5.07, 37.79, 12.92, 39.31,
78.38755869865417,0.93, 0.11, 0.12, -0.55, 10.80, -14.16, 37.17, 13.83, 39.47,
78.49837255477905,1.17, 0.16, 0.11, 9.95, 2.14, -21.61, 36.80, 15.44, 40.20,
78.60779619216919,0.98, -0.24, 0.05, 0.37, -13.61, -22.95, 38.15, 15.69, 39.77,
78.71781778335571,0.99, -0.14, -0.00, -40.16, 8.00, 0.06, 38.15, 17.96, 38.60,
78.827467918396,0.81, -0.09, 0.07, -29.42, 7.57, 13.49, 37.78, 18.58, 38.46,
78.93674755096436,0.88, -0.13, 0.06, -9.52, -1.28, 11.17, 37.57, 18.84, 39.33,
79.0469069480896,1.18, -0.14, 0.12, -24.72, -13.73, 10.93, 37.26, 19.24, 39.38,
79.15682291984558,0.83, 0.17, -0.04, 6.90, -14.28, 17.94, 37.46, 18.47, 38.43,
79.2666175365448,1.04, 0.13, -0.02, 39.79, 10.93, -1.71, 37.06, 17.00, 39.22,
79.3773136138916,0.83, 0.08, 0.03, 33.08, 17.15, -6.04, 36.45, 14.71, 39.56,
79.48759651184082,0.90, 0.10, 0.05, 11.72, 7.45, -8.12, 35.90, 14.09, 40.04,
79.5987958908081,1.21, 0.16, 0.07, 23.25, -7.93, -13.85, 36.13, 14.33, 40.26,
79.70859885215759,0.86, -0.22, -0.04, -6.84, -14.10, -11.78, 37.44, 14.69, 39.09,
79.81872057914734,1.06, -0.07, -0.02, -51.94, 5.62, 0.92, 36.78, 17.32, 40.16,
79.92939162254333,0.86, -0.05, 0.05, -31.37, 7.26, 7.14, 36.78, 18.97, 39.84,
80.03922581672668,0.87, -0.10, 0.02, -4.58, -2.20, 11.35, 36.56, 19.30, 38.75,
80.14978742599487,1.12, -0.07, 0.11, -13.24, -15.99, 9.09, 36.36, 18.84, 39.21,
80.25999307632446,0.87, 0.19, -0.03, 31.19, -15.87, 19.78, 37.94, 17.59, 37.99,
80.36926579475403,1.07, 0.05, 0.03, 39.61, 12.63, -3.78, 37.51, 14.49, 38.45,
80.4789617061615,0.87, 0.02, 0.06, 25.45, 13.79, -11.96, 36.72, 14.12, 39.32,
80.5895824432373,0.90, 0.08, 0.01, 4.64, 2.50, -15.01, 36.27, 14.00, 38.17,
80.6993134021759,1.17, 0.09, 0.10, 18.80, -18.19, -6.41, 37.02, 14.78, 39.71,
80.80947923660278,0.81, -0.25, 0.03, -21.12, -7.87, -4.58, 37.85, 14.62, 39.09,
80.91945171356201,1.03, -0.04, 0.02, -52.43, 9.83, -1.77, 38.23, 16.71, 38.94,
81.0288143157959,0.82, -0.06, 0.05, -28.32, 11.41, 14.40, 37.94, 18.51, 39.88,
81.14001607894897,0.92, -0.14, 0.07, -8.61, -1.71, 6.71, 38.06, 18.80, 37.76,
81.25080442428589,1.10, -0.08, 0.15, -19.41, -14.10, 8.73, 37.61, 18.90, 38.05,
81.36130142211914,0.93, 0.17, -0.01, 35.22, -18.31, 24.17, 38.00, 17.63, 37.27,
81.47117781639099,1.15, 0.07, 0.04, 38.70, 11.72, 1.83, 38.01, 15.14, 36.45,
81.58219122886658,0.80, 0.01, 0.10, 12.02, 11.72, -5.43, 37.57, 13.23, 38.40,
81.6922378540039,0.87, 0.11, 0.12, -2.81, 15.50, -11.23, 36.29, 14.16, 40.32,
81.80228018760681,1.24, 0.18, 0.13, 19.23, 3.66, -13.37, 37.04, 14.45, 40.30,
81.91244602203369,1.14, -0.23, 0.08, -7.87, -12.82, -16.36, 37.18, 14.05, 38.75,
82.02185201644897,1.08, -0.07, -0.04, -42.36, 9.28, -10.80, 38.21, 16.37, 37.48,
82.13156461715698,0.82, -0.09, 0.05, -19.23, 4.58, 5.68, 36.88, 17.71, 38.98,
82.24221849441528,0.94, -0.10, 0.08, -0.79, 5.00, 3.78, 36.43, 18.23, 39.73,
82.35230755805969,1.07, -0.22, 0.05, -13.06, -5.07, 2.56, 36.72, 17.30, 40.08,
82.46228432655334,1.33, 0.24, 0.11, 3.54, -20.45, 7.81, 36.74, 18.20, 38.77,
82.57260537147522,1.12, 0.06, 0.00, 29.85, 21.91, 0.85, 37.22, 16.69, 38.01,
82.68313646316528,0.73, 0.06, 0.05, 31.68, 5.37, -5.19, 36.83, 14.23, 38.13,
82.79284644126892,0.95, 0.02, 0.08, 10.93, 14.89, -7.32, 36.44, 13.90, 40.00,
82.90324640274048,1.15, 0.03, 0.04, -0.18, -2.99, -14.53, 36.36, 13.55, 40.70,
83.01343321800232,1.33, -0.33, 0.00, -17.88, -17.40, -11.17, 37.05, 14.62, 39.71,
83.1217679977417,1.00, -0.21, -0.03, -48.71, 10.01, -14.77, 37.57, 17.87, 39.42,
83.23180794715881,0.87, -0.12, 0.04, -31.74, -0.61, 15.20, 36.98, 19.68, 39.01,
83.34125137329102,0.90, -0.09, 0.12, -6.16, 4.21, 11.23, 36.88, 19.47, 39.17,
83.45205688476562,1.12, -0.20, 0.15, -15.63, -0.55, 8.73, 37.45, 18.59, 39.50,
83.5623390674591,1.32, 0.19, 0.11, 10.25, -19.23, 3.05, 37.66, 19.49, 38.48,
83.67303156852722,0.94, 0.11, -0.07, 41.20, 15.08, 8.24, 38.33, 17.44, 37.17,
83.78295373916626,0.80, 0.07, 0.05, 33.69, 11.78, 0.79, 37.35, 14.00, 39.09,
83.89202785491943,0.95, 0.03, 0.06, 14.71, 17.40, -6.59, 36.58, 12.71, 40.09,
84.0006844997406,1.08, 0.10, -0.04, 8.91, -1.28, -13.43, 35.63, 12.78, 41.54,
84.11047315597534,1.36, -0.26, 0.04, -2.99, -24.78, -8.48, 36.91, 13.24, 39.65,
84.22141075134277,0.89, -0.27, -0.08, -34.67, 3.42, -15.99, 37.84, 14.73, 39.29,
84.33139181137085,0.93, -0.10, 0.03, -31.19, 2.99, 16.66, 37.34, 17.76, 39.83,
84.44124698638916,0.92, -0.08, 0.12, -13.31, 5.43, 9.89, 36.69, 18.14, 39.04,
84.55077767372131,1.02, -0.20, 0.05, -14.47, -2.08, 6.04, 36.67, 18.24, 40.09,
84.6625919342041,1.37, 0.07, 0.16, -8.00, -18.25, 7.26, 37.16, 18.77, 38.31,
84.7740068435669,0.81, 0.12, -0.08, 34.91, 0.43, 19.47, 38.43, 16.59, 36.60,
84.88394546508789,0.92, 0.01, 0.06, 30.21, 7.81, 6.04, 37.38, 14.06, 37.21,
84.9932177066803,0.88, 0.04, 0.09, 12.21, 12.39, -4.76, 37.01, 13.48, 38.49,
85.10424494743347,0.95, 0.17, 0.05, 3.78, 4.09, -7.93, 36.76, 13.62, 38.09,
85.21341347694397,1.17, 0.05, 0.16, 22.83, -11.78, -4.52, 37.17, 12.30, 39.50,
85.32238173484802,0.85, -0.20, -0.05, -19.23, -6.41, -17.58, 37.87, 13.72, 37.26,
85.43240451812744,1.08, -0.03, 0.03, -44.98, 2.01, -1.89, 37.56, 17.54, 38.68,
85.54213953018188,0.83, -0.04, 0.08, -21.24, 3.30, 6.90, 37.29, 17.65, 38.28,
85.65223741531372,0.86, -0.13, 0.08, -4.39, -3.91, 10.13, 37.61, 17.55, 39.15,
85.76133346557617,1.14, -0.13, 0.20, -31.86, -11.23, -1.16, 37.40, 17.87, 38.32,
85.87081599235535,0.92, 0.22, 0.02, 27.65, -13.55, 20.63, 38.00, 17.83, 37.37,
85.98102498054504,1.15, 0.08, 0.04, 43.76, 16.30, 7.69, 36.93, 14.59, 38.15,
86.09110569953918,0.77, 0.09, 0.05, 37.54, 15.81, -4.21, 37.62, 12.41, 37.35,
86.2001805305481,0.90, 0.11, 0.09, 16.05, 5.98, -6.59, 36.58, 11.01, 38.96,
86.30948233604431,1.19, 0.16, 0.15, 12.57, -6.65, -14.40, 36.63, 11.66, 40.25,
86.42016124725342,0.97, -0.17, 0.06, -18.68, -17.94, -19.71, 38.22, 12.04, 37.72,
86.53027963638306,1.03, -0.01, 0.02, -31.19, -0.06, -12.63, 38.66, 14.51, 37.04,
86.63958191871643,0.84, -0.08, 0.10, -17.70, 0.67, 13.49, 38.83, 15.77, 38.22,
86.74958443641663,0.85, -0.14, 0.15, -1.53, 0.79, 6.65, 39.31, 15.44, 37.66,
86.85873770713806,1.21, -0.26, 0.21, -27.53, -11.66, 6.35, 38.02, 15.63, 38.53,
86.96831727027893,1.08, 0.30, 0.15, -0.06, -31.68, 7.93, 38.88, 16.58, 36.73,
87.07659959793091,1.12, 0.02, 0.05, 13.06, 23.62, 1.46, 39.39, 14.25, 34.69,
87.18573904037476,0.78, 0.12, 0.11, 7.32, 5.86, 4.64, 39.04, 13.73, 36.49,
87.29684472084045,0.83, 0.11, 0.15, -7.69, 7.93, -7.14, 38.00, 12.82, 37.11,
87.40662121772766,1.17, 0.20, 0.09, 15.87, 5.43, -17.82, 37.82, 14.54, 37.26,
87.5157790184021,1.13, -0.18, 0.19, -2.62, -18.37, -17.88, 38.33, 14.79, 35.88,
87.62634801864624,0.86, -0.28, -0.02, -16.11, 13.73, -20.81, 39.04, 16.83, 37.10,
87.7359356880188,0.94, -0.01, 0.06, -27.53, 5.92, 12.27, 37.72, 19.10, 36.83,
87.8452889919281,0.89, -0.05, 0.11, -2.08, 13.31, 5.31, 37.51, 19.07, 37.24,
87.95458436012268,0.96, -0.18, 0.12, -7.87, -2.69, 2.50, 37.11, 18.75, 38.85,
88.06523966789246,1.12, -0.05, 0.15, -37.72, -11.72, -0.49, 37.56, 20.30, 37.76,
88.17410612106323,0.86, 0.15, -0.07, 35.71, -8.30, 13.37, 38.20, 19.41, 35.50,
88.28382349014282,1.06, 0.01, -0.01, 50.23, 6.16, -3.17, 37.30, 17.18, 38.71,
88.39286971092224,0.79, 0.02, 0.06, 41.38, 11.35, -4.27, 37.87, 14.77, 39.36,
88.50156855583191,0.91, 0.03, 0.09, 13.67, 1.16, -10.01, 37.15, 13.85, 38.88,
88.610830783844,1.21, 0.06, 0.16, 5.55, -9.22, -14.65, 37.56, 13.96, 39.47,
88.72000741958618,0.84, -0.28, -0.00, -17.03, -13.67, -12.33, 38.79, 14.73, 38.70,
88.82971858978271,1.09, -0.19, -0.01, -64.33, 12.02, -3.97, 38.44, 18.47, 38.61,
88.9402825832367,0.76, -0.11, 0.07, -48.58, 2.38, 16.30, 38.78, 21.22, 37.26,
89.04978942871094,0.83, -0.11, 0.08, -21.67, 2.26, 9.52, 38.09, 21.35, 37.30,
89.15853714942932,1.17, -0.17, 0.13, -27.53, -3.85, 3.23, 38.15, 21.58, 38.54,
89.2676739692688,1.13, 0.26, 0.12, 25.39, -21.67, 17.03, 39.04, 22.02, 36.94,
89.37749218940735,1.11, -0.01, 0.02, 52.37, 27.28, -1.28, 39.28, 18.01, 36.06,
89.48816895484924,0.75, 0.04, 0.07, 39.92, 8.30, -5.62, 38.56, 15.10, 38.06,
89.59724307060242,0.85, 0.03, 0.13, 14.47, 12.33, -12.08, 37.43, 14.07, 39.71,
89.70667910575867,1.23, 0.07, 0.08, 22.64, 6.53, -12.45, 37.78, 15.20, 39.27,
89.81627655029297,1.30, -0.37, 0.08, -8.00, -14.95, -12.08, 38.81, 14.72, 38.31,
89.92588758468628,1.02, -0.23, -0.11, -44.56, 12.63, -0.67, 39.55, 16.55, 37.74,
90.03576254844666,0.87, -0.12, 0.06, -44.68, -0.61, 22.83, 37.99, 18.93, 36.93,
90.1461124420166,0.85, -0.07, 0.09, -38.33, 5.62, 12.02, 38.01, 19.78, 37.62,
90.25630402565002,1.06, -0.17, 0.05, -36.50, 1.89, 7.63, 37.05, 21.44, 38.82,
90.3649435043335,1.37, 0.19, 0.14, -27.59, -14.40, 4.27, 37.11, 22.91, 37.19,
90.47505116462708,0.81, 0.16, -0.09, 45.17, 8.18, 9.16, 38.11, 21.53, 37.21,
90.5851879119873,0.90, 0.02, 0.01, 63.66, 11.41, -2.56, 36.51, 18.27, 37.87,
90.69374489784241,0.91, -0.00, 0.07, 44.98, 21.55, -7.81, 36.50, 15.42, 39.55,
90.80306124687195,0.97, 0.11, 0.02, 22.64, 3.17, -11.54, 35.90, 13.96, 41.02,
90.91320633888245,1.36, -0.14, -0.01, 11.72, -20.14, -11.96, 36.66, 13.70, 41.06,
91.02412629127502,0.79, -0.24, -0.12, -32.35, -1.59, -11.29, 37.44, 16.36, 40.03,
91.13471293449402,0.96, -0.11, 0.02, -46.26, 6.10, 12.76, 36.71, 18.41, 40.03,
91.24586367607117,0.89, -0.07, 0.06, -30.76, 10.31, 11.60, 36.71, 19.27, 40.82,
91.35577774047852,0.95, -0.19, 0.01, -10.31, -6.71, 11.72, 36.00, 20.04, 40.38,
91.46585369110107,1.46, 0.08, 0.09, -7.08, -9.52, 9.58, 37.22, 19.82, 40.01,
91.57674193382263,0.88, 0.18, -0.17, 60.12, -1.16, 14.28, 37.89, 17.13, 39.12,
91.68619537353516,0.89, 0.04, 0.01, 64.09, 3.11, 0.18, 37.34, 13.21, 38.81,
91.79465913772583,0.91, -0.00, 0.07, 37.41, 12.82, -10.19, 37.19, 10.62, 40.23,
91.9061119556427,0.95, 0.08, 0.04, 3.23, 1.34, -14.22, 36.80, 10.40, 40.30,
92.01334500312805,1.36, -0.12, 0.11, -2.20, -17.58, -8.36, 37.46, 11.19, 39.75,
92.1233971118927,0.80, -0.28, -0.10, -47.85, -1.71, -13.31, 38.65, 14.05, 39.88,
92.23388338088989,1.06, -0.06, 0.01, -64.70, 3.36, 5.86, 38.37, 17.70, 39.06,
92.34255862236023,0.78, -0.07, 0.06, -45.65, 7.32, 12.02, 37.32, 20.29, 38.98,
92.45158886909485,0.90, -0.12, 0.08, -20.81, -1.53, 11.84, 37.66, 20.90, 37.94,
92.56183433532715,1.18, -0.04, 0.14, -18.92, -15.38, 4.09, 38.10, 21.30, 37.65,
92.67132782936096,0.90, 0.22, -0.01, 41.75, -8.06, 16.54, 38.45, 20.65, 36.15,
92.78007292747498,1.05, 0.08, 0.00, 72.51, 8.42, 7.08, 37.68, 17.15, 38.01,
92.88935780525208,0.83, 0.05, 0.09, 52.67, 11.23, -9.40, 37.83, 12.84, 39.03,
93.00023317337036,0.89, 0.08, 0.12, 20.63, 9.34, -11.05, 36.60, 12.59, 38.29,
93.10986542701721,1.23, 0.07, 0.15, 11.60, 2.93, -15.87, 36.67, 11.94, 40.61,
93.22069573402405,1.01, -0.29, -0.00, -32.04, -4.03, -19.96, 38.15, 13.90, 39.23,
93.33086609840393,1.06, -0.10, -0.05, -73.61, 13.24, -8.85, 37.28, 18.47, 39.73,
93.4411895275116,0.74, -0.14, 0.05, -52.92, 6.10, 12.21, 36.65, 20.95, 38.53,
93.55054426193237,0.89, -0.12, 0.09, -33.39, 3.60, 7.93, 36.30, 22.78, 39.03,
93.6611692905426,1.19, -0.12, 0.11, -28.99, -4.76, 5.07, 35.86, 23.51, 39.38,
93.77204751968384,1.08, 0.23, -0.05, 47.61, -15.26, 11.84, 37.05, 22.94, 39.29,
93.88246893882751,1.10, 0.01, -0.04, 79.59, 13.37, 3.42, 37.11, 18.03, 39.05,
93.99193048477173,0.74, 0.02, 0.06, 52.19, 5.00, -5.80, 37.02, 14.53, 38.90,
94.10173320770264,0.91, 0.02, 0.11, 17.21, 3.78, -12.45, 36.88, 12.52, 40.19,
94.21333026885986,1.22, 0.04, 0.12, -0.12, 1.46, -14.28, 36.73, 13.60, 40.21,
94.32399082183838,1.17, -0.29, 0.04, -28.26, -15.56, -10.38, 37.63, 13.99, 38.84,
94.43423628807068,1.04, -0.20, -0.08, -67.20, 13.06, -4.09, 38.35, 18.32, 39.39,
94.54322814941406,0.81, -0.12, 0.03, -45.65, 3.17, 14.47, 38.05, 20.01, 38.26,
94.65271735191345,0.91, -0.09, 0.09, -20.75, 9.95, 9.52, 37.29, 20.69, 39.56,
94.76300406455994,1.16, -0.19, 0.06, -9.77, -0.24, 10.25, 37.02, 20.52, 39.01,
94.87279748916626,1.35, 0.20, 0.07, 14.40, -20.14, 2.08, 37.28, 20.74, 38.94,
94.98314213752747,0.94, 0.15, -0.04, 51.15, 15.38, 5.68, 38.01, 18.79, 38.83,
95.09217977523804,0.77, 0.08, 0.03, 43.03, 3.48, -5.80, 37.82, 14.79, 39.55,
95.20423245429993,0.92, 0.04, 0.10, 21.18, 10.38, -11.60, 37.28, 13.75, 40.20,
95.31401228904724,1.12, 0.07, 0.00, 6.65, 1.04, -15.44, 36.89, 14.00, 41.39,
95.42300605773926,1.35, -0.34, 0.03, -17.21, -9.03, -11.47, 37.29, 15.20, 39.75,
95.5332841873169,0.91, -0.21, -0.15, -55.60, 15.44, -3.42, 38.12, 17.27, 39.66,
95.64325475692749,0.88, -0.11, -0.01, -39.98, -1.46, 9.40, 37.56, 19.40, 39.53,
95.75295066833496,0.90, -0.07, 0.07, -18.01, 6.41, 13.85, 36.74, 20.87, 39.87,
95.86266613006592,1.12, -0.16, 0.02, 2.50, -3.42, 10.99, 36.85, 20.57, 40.11,
95.97323417663574,1.42, 0.16, 0.11, 9.89, -14.04, 6.65, 36.96, 20.31, 39.44,
96.08327531814575,0.87, 0.14, -0.10, 35.46, 13.12, -2.08, 37.72, 17.35, 38.46,
96.19362425804138,0.84, 0.06, 0.07, 27.10, 6.16, -3.78, 36.91, 15.84, 37.59,
96.30256390571594,0.92, 0.06, 0.10, 15.87, 15.75, -9.95, 35.80, 14.66, 39.59,
96.41255140304565,1.05, 0.11, -0.02, 1.46, 2.81, -16.36, 35.41, 15.01, 40.55,
96.52305507659912,1.31, -0.14, 0.04, -3.78, -25.70, -4.21, 36.04, 16.46, 40.05,
96.63351249694824,0.78, -0.24, -0.13, -30.46, -10.50, -6.35, 37.21, 17.85, 39.78,
96.7451057434082,1.00, -0.06, 0.03, -47.73, -0.92, 4.94, 37.08, 20.47, 38.51,
96.85440826416016,0.84, -0.06, 0.09, -10.44, 7.20, 8.91, 37.13, 21.15, 39.14,
96.96494150161743,0.91, -0.15, 0.08, 2.38, -1.28, 6.96, 36.69, 21.08, 39.04,
97.07527613639832,1.14, -0.08, 0.15, -4.94, -18.98, 5.98, 36.76, 21.00, 39.36,
97.18566918373108,0.84, 0.06, -0.05, 32.17, -13.43, 26.00, 38.78, 18.25, 36.46,
97.29537725448608,1.06, 0.02, -0.03, 32.65, 16.30, -4.39, 37.73, 17.21, 38.01,
97.40491604804993,0.85, -0.02, 0.08, 17.64, 16.48, -6.71, 36.93, 15.44, 38.56,
97.51627540588379,0.92, 0.07, 0.09, 4.15, 6.77, -11.05, 36.45, 16.21, 38.24,
97.62714123725891,1.24, 0.07, 0.20, 11.41, 5.07, -6.29, 35.51, 16.78, 39.73,
97.7355489730835,1.11, -0.22, 0.00, -17.40, -8.18, -3.42, 37.23, 15.98, 39.72,
97.84616541862488,1.02, -0.09, -0.08, -41.56, 6.84, -6.77, 37.45, 18.26, 39.40,
97.95490074157715,0.90, -0.08, 0.06, -31.31, 4.82, 7.14, 37.27, 20.25, 39.21,
98.06436443328857,0.92, -0.07, 0.08, -6.59, 3.42, 4.76, 36.66, 20.48, 40.27,
98.17575860023499,1.08, -0.15, 0.08, -7.32, -4.27, 3.97, 36.69, 20.51, 39.45,
98.28534483909607,1.38, 0.20, 0.12, 7.45, -22.71, -0.12, 37.11, 21.41, 39.25,
98.3961353302002,0.87, 0.07, -0.06, 39.37, 14.04, -1.95, 37.68, 18.70, 37.01,
98.50470924377441,0.86, 0.03, 0.08, 30.58, 5.07, -1.53, 36.38, 16.19, 39.28,
98.61363649368286,0.88, 0.01, 0.09, 21.79, 13.37, -9.46, 36.47, 15.00, 39.90,
98.72430562973022,1.05, 0.06, -0.00, 6.47, 1.95, -13.92, 35.67, 15.56, 39.54,
98.83461904525757,1.32, -0.26, 0.04, -8.85, -19.71, -1.40, 37.11, 15.80, 40.38,
98.94621586799622,0.87, -0.25, -0.16, -41.87, 8.54, -5.98, 37.81, 16.74, 39.66,
99.05503988265991,0.90, -0.09, 0.02, -38.45, 1.28, 12.02, 37.35, 20.08, 39.22,
99.16460227966309,0.88, -0.08, 0.06, -19.96, 11.05, 6.96, 36.17, 20.95, 38.21,
99.2745213508606,0.95, -0.16, 0.01, -6.16, -0.85, 3.66, 36.07, 21.12, 40.16,
99.38469314575195,1.41, -0.03, 0.08, -2.38, -18.37, 3.78, 36.36, 22.74, 39.76,
99.49449014663696,0.74, 0.04, -0.11, 45.59, -12.21, 23.62, 38.01, 19.45, 37.38,
99.60421943664551,1.01, 0.02, -0.00, 46.45, 3.60, 2.20, 37.72, 16.96, 38.20,
99.71248507499695,0.87, 0.02, 0.08, 26.55, 17.58, -9.16, 36.89, 14.83, 38.82,
99.82307887077332,0.93, 0.05, 0.04, 2.62, 4.94, -12.70, 36.25, 14.82, 40.58,
99.9323582649231,1.22, 0.07, 0.10, 8.00, -17.94, -9.52, 37.17, 15.58, 40.19,
100.04277205467224,0.82, -0.27, -0.04, -16.24, -12.27, -9.89, 38.15, 17.29, 39.33,
100.15410590171814,1.00, -0.11, -0.02, -53.59, 1.77, 2.62, 38.22, 19.57, 38.45,
100.26254653930664,0.78, -0.07, 0.04, -33.20, 7.45, 9.95, 37.18, 21.19, 37.23,
100.37320923805237,0.89, -0.15, 0.07, -15.75, -1.04, 12.82, 36.90, 22.22, 38.15,
100.48312520980835,1.18, -0.12, 0.13, -21.18, -5.55, 6.10, 36.72, 22.08, 38.13,
100.59130430221558,1.05, 0.22, 0.06, 31.68, -17.46, 23.01, 37.55, 22.05, 37.81,
100.70187950134277,1.05, 0.07, -0.02, 39.25, 20.69, -5.62, 37.27, 17.90, 38.57,
100.81049036979675,0.75, 0.08, 0.04, 36.13, 16.54, -12.63, 36.15, 16.42, 39.05,
100.92093348503113,0.92, 0.09, 0.06, 16.85, 11.41, -13.73, 35.41, 16.16, 41.08,
101.03168416023254,1.28, 0.07, 0.06, 13.18, 0.92, -17.76, 35.16, 17.33, 41.22,
101.14078164100647,1.07, -0.30, -0.05, -26.98, -14.95, -12.70, 36.60, 17.08, 40.21,
101.25297427177429,1.09, -0.04, -0.07, -54.44, 4.70, -1.34, 37.04, 19.81, 40.44,
101.36415767669678,0.76, -0.12, 0.02, -27.16, -2.32, 11.35, 36.99, 21.45, 38.94,
101.47365093231201,0.88, -0.10, 0.09, -8.48, -1.28, 10.19, 36.58, 21.53, 38.57,
101.58395981788635,1.15, -0.14, 0.14, -13.55, 0.43, 4.52, 36.25, 21.46, 38.72,
101.69425320625305,1.30, 0.24, 0.16, 20.63, -28.26, 17.70, 37.73, 21.46, 38.07,
101.80386352539062,0.81, 0.08, -0.11, 32.04, 8.24, 15.50, 38.15, 17.10, 37.08,
101.91300892829895,0.93, 0.08, 0.06, 32.53, 5.00, -5.92, 37.01, 15.03, 39.48,
102.02139091491699,0.93, 0.07, 0.12, 18.01, 19.96, -12.15, 36.11, 14.05, 38.99,
102.1352424621582,0.96, 0.13, 0.03, 3.91, 3.85, -13.31, 35.85, 14.43, 40.86,
102.24512004852295,1.37, -0.07, 0.11, 16.24, -20.69, -6.41, 36.34, 15.22, 39.20,
102.35489702224731,0.81, -0.19, -0.07, -23.50, -11.05, -9.03, 37.62, 16.71, 38.39,
102.46425819396973,1.03, -0.06, 0.01, -52.73, 1.10, 3.60, 37.90, 18.62, 38.32,
102.5739107131958,0.82, -0.00, 0.08, -25.02, 8.06, 8.18, 37.01, 20.72, 38.54,
102.6824951171875,0.89, -0.09, 0.09, -4.09, 1.59, 9.22, 36.88, 20.74, 38.42,
102.7926344871521,1.20, -0.13, 0.14, -11.66, -5.31, 5.19, 36.52, 20.58, 38.90,
102.90215945243835,0.89, 0.18, -0.00, 28.14, -22.58, 15.26, 37.67, 19.74, 37.52,
103.0103988647461,1.11, 0.07, -0.00, 32.71, 17.70, 0.67, 37.45, 17.21, 38.50,
103.11968779563904,0.73, 0.07, 0.10, 25.70, 10.25, -7.75, 36.73, 15.19, 38.21,
103.22963643074036,0.89, 0.08, 0.12, 9.64, 14.89, -16.11, 36.29, 15.37, 40.52,
103.33843874931335,1.29, 0.11, 0.05, 15.32, 7.75, -24.48, 35.31, 15.70, 40.54,
103.44826197624207,1.08, -0.33, 0.01, -9.34, -17.88, -12.76, 37.49, 16.64, 39.78,
103.5589210987091,1.06, -0.15, -0.07, -45.35, 4.33, -7.39, 37.62, 18.18, 38.71,
103.66902470588684,0.81, -0.13, 0.06, -36.50, 0.43, 15.14, 37.92, 20.15, 37.19,
103.77972888946533,0.88, -0.09, 0.11, -19.71, 13.06, 10.44, 37.17, 20.79, 39.03,
103.88925504684448,1.23, -0.16, 0.13, -15.44, 11.84, 12.70, 36.04, 20.48, 39.15,
104.00109219551086,1.24, 0.19, 0.11, 9.28, -26.43, 7.32, 36.90, 20.18, 37.21,
104.11063361167908,0.83, 0.14, -0.10, 34.73, 12.39, 1.28, 37.41, 17.63, 37.63,
104.22039437294006,0.87, 0.06, 0.08, 35.95, 3.05, -7.51, 36.77, 16.16, 37.66,
104.33017802238464,0.94, 0.02, 0.11, 21.24, 18.19, -15.26, 36.55, 15.83, 40.34,
104.4410970211029,1.05, 0.08, -0.05, 9.28, 4.58, -19.96, 35.50, 16.48, 41.56,
104.55051326751709,1.40, -0.35, 0.02, -10.13, -9.46, -5.86, 36.63, 16.76, 41.02,
104.66087555885315,0.89, -0.19, -0.16, -43.76, -1.28, 3.42, 36.83, 18.20, 39.55,
104.7712299823761,0.85, -0.08, -0.02, -53.34, -15.01, 14.89, 36.90, 21.45, 39.90,
104.88022303581238,0.87, -0.02, 0.15, -26.00, 17.70, 11.47, 36.87, 22.44, 39.65,
104.99005484580994,1.06, -0.12, 0.06, -5.00, 8.06, 5.19, 35.57, 22.89, 39.72,
105.0984480381012,1.34, 0.15, 0.09, 22.52, -18.68, 4.46, 35.97, 22.51, 39.58,
105.20849895477295,0.79, 0.09, -0.09, 64.88, -1.46, 16.30, 37.49, 18.93, 38.64,
105.32023310661316,0.97, -0.00, 0.01, 51.03, -9.52, -2.50, 37.27, 15.15, 38.85,
105.42939972877502,0.73, 0.02, 0.14, 17.09, 2.87, -1.10, 37.40, 12.98, 38.90,
105.54086446762085,1.06, 0.15, 0.17, 3.42, 14.59, -8.36, 36.33, 12.92, 40.30,
105.65105891227722,1.17, 0.08, 0.18, 8.48, -12.08, -13.55, 36.61, 14.09, 39.93,
105.76059770584106,0.91, -0.23, -0.10, -20.63, -8.42, -10.80, 38.28, 15.31, 38.71,
105.87049674987793,1.01, -0.02, -0.02, -36.25, -8.12, 5.55, 37.72, 17.43, 38.06,
105.98087310791016,0.70, -0.04, 0.07, -32.10, 8.00, 16.36, 38.34, 17.82, 37.19,
106.09183263778687,0.88, -0.08, 0.09, -18.55, 7.20, 9.52, 37.56, 18.31, 38.10,
106.20170450210571,1.24, -0.08, 0.15, -34.36, -3.91, 5.37, 36.83, 19.57, 40.04,
106.31241083145142,1.05, 0.28, 0.11, 37.23, -28.56, 17.21, 37.74, 18.49, 36.78,
106.42310166358948,1.09, 0.15, -0.06, 46.39, 33.26, -12.27, 37.59, 16.03, 37.23,
106.53319597244263,0.77, 0.07, -0.02, 46.69, 5.37, -6.47, 37.05, 14.29, 38.31,
106.64264225959778,0.88, 0.07, 0.09, 24.11, 15.01, -12.33, 36.58, 12.49, 39.55,
106.7515709400177,1.10, 0.05, 0.03, 16.72, 6.10, -19.65, 35.75, 13.07, 40.32,
106.86211347579956,1.37, -0.29, -0.01, -4.94, -11.90, -13.85, 36.69, 13.29, 40.60,
106.97183513641357,1.01, -0.19, -0.13, -37.54, 6.04, 1.10, 36.90, 15.25, 38.12,
107.08044481277466,0.83, -0.14, 0.03, -55.24, -0.79, 19.17, 36.80, 17.57, 39.39,
107.19121646881104,0.88, -0.05, 0.07, -36.74, 17.94, 16.11, 36.44, 18.53, 40.67,
107.30094361305237,1.10, -0.11, 0.00, -13.18, -0.43, 16.78, 36.06, 19.38, 39.81,
107.41084003448486,1.36, 0.20, 0.10, -15.26, -22.83, 12.57, 36.27, 19.03, 39.87,
107.52100467681885,0.86, 0.24, -0.17, 29.48, 4.46, 4.21, 37.45, 18.54, 37.27,
107.62976741790771,0.88, 0.11, 0.05, 44.01, 0.98, -13.12, 36.27, 15.34, 38.75,
107.74004364013672,0.87, 0.04, 0.11, 21.30, 8.91, -15.08, 36.04, 13.99, 40.10,
107.84952402114868,1.12, 0.07, 0.02, 1.46, 1.28, -24.23, 35.97, 15.73, 40.27,
107.95964121818542,1.34, -0.26, 0.05, -19.78, -19.84, -9.77, 36.73, 17.29, 40.38,
108.07011651992798,0.86, -0.22, -0.13, -37.23, 3.23, -2.38, 37.68, 18.87, 38.84,
108.1800148487091,0.87, -0.09, 0.04, -24.05, -1.28, 2.01, 37.66, 20.90, 38.18,
108.29015398025513,0.91, -0.15, 0.11, -7.45, 14.65, 4.70, 36.69, 22.02, 38.89,
108.39977836608887,1.00, -0.18, 0.12, 2.08, 1.59, -3.72, 36.34, 22.02, 39.54,
108.51014542579651,1.13, -0.09, 0.20, -4.15, -13.79, 17.52, 36.94, 22.18, 38.73,
108.6203784942627,0.81, 0.01, -0.01, 42.85, -14.10, 22.83, 38.09, 19.52, 37.08,
108.73216509819031,1.07, -0.07, 0.02, 10.25, 31.86, 10.44, 37.52, 16.66, 38.10,
108.84096050262451,0.79, 0.06, 0.04, -5.25, 15.93, 2.32, 36.67, 15.28, 39.18,
108.95101380348206,0.94, 0.17, 0.02, -12.51, 11.29, -1.40, 35.46, 16.22, 42.13,
109.06113004684448,1.15, 0.15, 0.09, 11.11, -5.07, -4.39, 35.62, 16.96, 42.37,
109.17002439498901,1.00, -0.12, -0.02, -15.50, -9.70, -16.48, 37.02, 17.69, 40.95,
109.27934265136719,1.10, 0.04, -0.03, -45.72, 11.72, 0.98, 36.58, 19.40, 40.38,
109.3889946937561,0.79, -0.06, 0.03, -17.94, 9.28, -0.79, 36.32, 20.79, 41.31,
109.49827861785889,0.87, -0.08, 0.00, 4.52, 1.65, -0.79, 35.94, 20.90, 41.70,
109.60899710655212,1.21, -0.11, 0.08, -14.65, -7.39, 0.79, 35.97, 21.34, 42.38,
109.71910238265991,0.95, 0.12, -0.04, 39.92, -26.31, 19.84, 37.39, 19.85, 39.71,
109.82912373542786,1.01, 0.08, -0.04, 38.51, 25.45, -1.95, 36.90, 17.16, 40.50,
109.93816041946411,0.76, 0.09, -0.01, 27.53, 16.48, -7.26, 35.77, 15.45, 42.20,
110.04681706428528,0.96, 0.10, 0.00, 2.01, 15.20, -5.62, 34.62, 14.69, 42.38,
110.15708518028259,1.19, 0.14, -0.02, -1.89, -4.33, -13.24, 34.81, 15.47, 43.90,
110.26711297035217,1.07, -0.20, -0.07, -14.77, -22.34, -10.19, 36.19, 16.26, 43.70,
110.37690901756287,1.03, -0.10, -0.09, -54.75, 3.42, 5.37, 36.56, 18.05, 42.04,
110.48621320724487,0.79, -0.01, 0.00, -27.34, 7.02, 2.44, 36.51, 20.23, 41.83,
110.59655332565308,0.90, -0.10, 0.00, -2.38, 2.26, 4.58, 36.69, 20.68, 41.41,
110.70599699020386,1.14, -0.12, 0.01, -1.22, -7.63, 1.16, 36.60, 21.33, 42.11,
110.81617522239685,1.07, 0.17, -0.05, 40.34, -19.71, 24.96, 36.32, 19.36, 40.33,
110.92672228813171,0.97, 0.05, -0.11, 41.50, 20.02, -6.04, 37.06, 15.64, 40.22,
111.0366473197937,0.80, 0.08, 0.02, 23.99, 15.50, -11.84, 36.33, 14.05, 41.52,
111.1481704711914,0.91, 0.08, 0.00, 4.64, 16.24, -12.21, 34.86, 14.16, 43.69,
111.25689554214478,1.20, 0.07, -0.05, 4.70, 1.83, -16.30, 34.66, 14.75, 43.65,
111.36822080612183,1.26, -0.30, -0.07, -26.25, -11.29, -15.38, 35.68, 15.82, 42.66,
111.4787335395813,1.06, -0.12, -0.18, -56.70, 0.55, -0.73, 36.11, 18.15, 41.91,
111.58878183364868,0.83, -0.11, -0.01, -34.85, -7.14, 7.39, 36.45, 20.14, 40.91,
111.69773030281067,0.87, -0.09, 0.05, -15.69, -2.01, 5.25, 35.96, 21.31, 41.52,
111.80652570724487,1.19, -0.13, 0.08, -8.06, -4.82, 4.39, 35.75, 22.02, 40.80,
111.91655921936035,1.28, 0.20, 0.08, 21.73, -31.43, 16.91, 36.95, 21.00, 38.53,
112.02663779258728,0.84, 0.13, -0.07, 40.59, 9.40, 8.67, 37.92, 17.21, 38.96,
112.13695549964905,0.90, 0.03, 0.05, 38.70, 1.34, -10.44, 37.62, 15.15, 39.05,
112.24678063392639,0.93, -0.02, 0.11, 6.29, 8.61, -14.40, 36.88, 14.10, 39.75,
112.3562605381012,1.04, 0.09, -0.01, 5.80, -2.50, -18.92, 36.18, 14.93, 40.27,
112.46826910972595,1.27, -0.25, 0.08, -3.54, -22.16, -11.47, 36.91, 17.16, 39.78,
112.578786611557,0.74, -0.29, -0.08, -34.12, 3.17, -3.23, 37.81, 19.26, 38.53,
112.68880677223206,1.02, -0.06, 0.02, -52.86, 9.64, 14.16, 36.83, 21.59, 39.70,
112.79807305335999,0.90, -0.05, 0.06, -21.79, 23.19, 9.22, 36.39, 22.28, 40.37,
112.90886926651001,0.99, -0.16, 0.07, -1.46, 3.54, 7.69, 35.45, 22.28, 41.19,
113.01854252815247,1.12, -0.07, 0.10, -15.38, -13.18, 4.39, 35.30, 21.74, 41.03,
113.12898302078247,0.89, 0.09, -0.05, 31.49, -11.66, 15.56, 37.01, 20.89, 39.61,
113.24012279510498,1.06, 0.01, -0.02, 38.88, 31.07, -4.03, 35.62, 18.30, 39.48,
113.34977459907532,0.88, 0.04, 0.00, 33.69, 28.50, -8.48, 34.28, 16.88, 41.44,
113.4596107006073,0.91, 0.00, -0.09, 10.38, 0.49, -16.91, 33.65, 17.03, 43.18,
113.56961345672607,1.49, -0.05, -0.03, -0.31, -20.94, -10.99, 34.22, 17.96, 44.35,
113.67943406105042,0.79, -0.21, -0.13, -36.74, -15.63, -0.55, 35.50, 19.01, 41.92,
113.78953337669373,0.93, -0.14, -0.03, -44.86, -2.14, 10.01, 35.69, 22.34, 41.30,
113.8997437953949,0.88, -0.08, 0.05, -17.70, 11.35, 9.34, 34.80, 23.49, 40.11,
114.00847864151001,1.09, -0.24, 0.06, -8.85, -1.89, 8.97, 34.77, 23.27, 40.49,
114.11751794815063,1.34, 0.02, 0.09, 0.49, -22.58, 19.71, 35.40, 22.24, 39.97,
114.2274169921875,0.72, 0.08, -0.09, 32.10, 1.53, 17.21, 36.95, 19.67, 37.38,
114.33734560012817,0.91, 0.01, 0.04, 36.87, 16.72, 9.22, 36.08, 16.98, 38.95,
114.44688272476196,0.91, 0.05, 0.04, 22.52, 22.46, -3.48, 35.05, 15.48, 40.28,
114.55682492256165,0.94, 0.15, -0.05, 3.91, 3.85, -11.47, 34.40, 14.88, 41.61,
114.66592359542847,1.40, -0.07, -0.03, 5.74, -23.19, -5.98, 34.61, 15.59, 41.96,
114.7765109539032,0.78, -0.18, -0.09, -36.87, -7.14, 0.43, 35.51, 17.21, 40.06,
114.88572335243225,0.95, 0.02, -0.02, -51.51, 2.50, 14.89, 35.24, 19.80, 39.95,
114.99611520767212,0.90, 0.07, 0.01, -10.99, 16.97, 14.77, 35.11, 20.40, 40.88,
115.1053626537323,0.99, -0.13, 0.02, 0.92, 1.10, 12.63, 34.11, 19.48, 41.16,
115.21562457084656,1.24, 0.13, -0.04, -19.41, -12.70, -1.46, 34.06, 19.63, 40.87,
115.32712030410767,0.70, 0.05, -0.18, 11.60, 4.64, 6.90, 34.85, 19.13, 39.94,
115.43696236610413,1.10, 0.02, -0.06, 36.99, 19.78, -12.15, 33.74, 18.20, 41.24,
115.54521250724792,0.89, 0.05, -0.05, 23.44, 20.26, -13.98, 32.62, 17.04, 42.09,
115.65611219406128,0.92, 0.06, -0.08, 12.39, 12.94, -1.28, 31.51, 17.13, 43.93,
115.76547861099243,1.23, 0.11, -0.02, 12.02, -5.31, -11.72, 31.04, 16.27, 44.09,
115.87468576431274,1.06, -0.16, -0.15, -3.91, -17.94, -12.82, 32.62, 16.08, 43.40,
115.98476314544678,0.95, -0.02, -0.14, -36.25, 9.64, 19.35, 33.37, 16.88, 42.87,
116.09350061416626,0.74, -0.01, -0.02, -10.25, -10.50, 17.03, 33.33, 17.02, 41.39,
116.20238304138184,0.98, -0.01, 0.02, -7.39, 0.98, 9.95, 33.63, 16.43, 41.52,
116.31187582015991,1.12, -0.04, 0.00, -13.24, -1.53, -1.65, 33.36, 16.58, 41.31,
116.42097473144531,1.29, 0.29, -0.01, 14.53, -21.48, 3.17, 33.83, 17.47, 40.32,
116.52983331680298,0.89, 0.15, -0.19, 28.08, 13.24, -2.99, 34.27, 16.59, 40.67,
116.6390311717987,0.88, 0.10, 0.01, 14.34, 0.98, -16.78, 33.53, 14.86, 41.37,
116.74766039848328,0.94, 0.09, 0.03, 10.56, 25.27, -9.34, 32.15, 15.21, 42.63,
116.85802054405212,0.95, 0.14, -0.17, 10.86, 6.53, -11.11, 31.91, 15.36, 43.73,
116.96677899360657,1.27, -0.02, -0.12, 24.90, -25.15, -16.48, 32.57, 15.28, 43.60,
117.07619619369507,0.75, -0.13, -0.19, -11.11, -10.13, -5.07, 33.95, 15.84, 42.47,
117.18599438667297,1.08, 0.00, -0.03, -17.64, 6.47, 19.84, 34.16, 16.30, 41.64,
117.29598546028137,0.83, -0.04, 0.01, -11.47, 18.19, 23.93, 33.95, 15.52, 41.71,
117.40486359596252,0.91, -0.03, -0.06, -16.91, 5.00, 4.46, 32.53, 15.26, 43.80,
117.51405930519104,1.24, 0.00, -0.04, -33.45, -13.55, 8.42, 32.79, 16.76, 44.59,
117.62479090690613,0.86, 0.14, -0.20, 11.90, -25.15, 13.73, 34.33, 15.43, 40.45,
117.73442554473877,1.06, 0.04, -0.08, 19.84, 21.24, -13.92, 34.67, 14.87, 41.17,
117.84391021728516,0.73, 0.09, -0.01, 6.10, 5.55, -11.29, 33.39, 15.54, 41.39,
117.95372700691223,0.94, 0.13, -0.02, 1.40, 8.00, -13.43, 33.02, 16.58, 42.92,
118.06409001350403,1.30, 0.12, -0.01, 13.67, 2.87, -12.76, 32.30, 16.72, 42.91,
118.17357683181763,1.11, -0.24, -0.15, 5.74, -11.35, -10.86, 34.07, 16.56, 43.05,
118.28317880630493,0.93, -0.10, -0.18, -44.37, 13.43, 13.85, 34.41, 16.56, 42.29,
118.3939619064331,0.84, -0.03, -0.06, -17.27, -6.47, 19.23, 34.41, 17.15, 42.43,
118.50306439399719,0.94, -0.02, 0.02, -6.35, -0.61, 14.59, 34.52, 16.66, 43.03,
118.61332845687866,1.07, -0.06, 0.01, -18.13, -2.93, 1.89, 33.86, 16.24, 42.07,
118.72227120399475,1.30, 0.24, -0.03, -6.65, -23.13, 0.37, 34.61, 17.69, 41.33,
118.8317620754242,0.74, 0.17, -0.19, 20.63, 1.34, 6.96, 34.79, 17.03, 40.03,
118.94050478935242,1.03, 0.02, -0.01, 6.84, 6.04, -24.84, 34.03, 15.86, 42.20,
119.05057621002197,0.87, 0.09, 0.03, 3.30, 16.97, -11.78, 33.87, 16.48, 40.86,
119.1596429347992,0.90, 0.14, -0.04, 9.16, 5.25, -8.30, 32.34, 17.64, 41.75,
119.26828360557556,1.34, 0.08, 0.05, 31.37, -11.35, -9.89, 32.81, 16.70, 41.63,
119.37776470184326,0.98, -0.12, -0.13, -11.60, -11.29, -11.66, 33.86, 16.24, 42.36,
119.48725128173828,1.09, 0.00, -0.14, -26.67, 16.54, 17.09, 33.81, 17.49, 41.43,
119.59702730178833,0.71, -0.06, -0.05, -12.39, -6.23, 25.63, 33.61, 17.31, 40.80,
119.70771479606628,0.95, -0.07, 0.02, -7.93, 1.83, 17.15, 33.23, 15.55, 41.47,
119.8176679611206,1.19, -0.04, 0.02, -25.33, 1.95, 20.32, 33.64, 15.59, 41.97,
119.92731928825378,1.21, 0.37, -0.04, 1.89, -21.00, 21.36, 33.67, 15.64, 41.85,
120.0377185344696,0.78, 0.30, -0.20, 4.82, 19.23, 9.77, 33.98, 13.81, 40.72,
120.14651536941528,0.87, 0.23, -0.06, 10.56, 4.58, -13.92, 32.91, 13.32, 42.60,
120.2565495967865,0.95, 0.21, -0.03, -4.09, 23.93, -8.30, 31.69, 13.64, 42.03,
120.36533379554749,0.96, 0.26, -0.14, 0.43, 10.74, -5.74, 30.90, 14.79, 43.75,
120.47555923461914,1.22, 0.19, -0.21, 17.88, -15.26, -1.40, 30.65, 14.12, 44.03,
120.58602738380432,0.78, 0.08, -0.26, -4.76, -11.17, 10.01, 31.34, 14.37, 43.29,
120.69505047798157,1.15, 0.12, -0.10, -33.51, 31.68, 15.56, 31.14, 14.47, 43.27,
120.80539584159851,0.79, 0.17, -0.22, -0.79, 0.55, 7.32, 30.69, 14.92, 42.80,
120.9159631729126,1.03, 0.15, -0.14, -2.56, -8.18, 0.92, 29.54, 15.11, 44.65,
121.02527642250061,1.00, 0.11, -0.16, -7.93, -10.13, 1.22, 30.49, 15.20, 44.30,
121.13579058647156,0.86, 0.22, -0.24, 7.81, -2.08, 18.55, 31.03, 14.28, 44.79,
121.2458565235138,1.06, 0.25, -0.16, 13.12, 25.09, -14.47, 30.53, 13.77, 44.07,
121.35513877868652,0.75, 0.19, -0.17, 20.94, -2.56, -11.54, 30.15, 14.47, 42.97,
121.46608090400696,0.91, 0.24, -0.12, 1.89, 16.60, -5.25, 28.44, 13.83, 44.74,
121.57603430747986,1.12, 0.30, -0.22, 13.98, 8.36, -10.50, 28.65, 13.54, 46.00,
121.68669438362122,1.04, -0.04, -0.25, 3.23, -11.35, -5.13, 28.47, 13.51, 45.97,
121.7966673374176,0.90, 0.08, -0.34, -29.97, -3.36, 11.66, 30.37, 13.29, 44.80,
121.90655589103699,0.80, 0.15, -0.11, -7.02, -35.52, 18.74, 30.31, 14.12, 44.36,
122.01792430877686,1.09, 0.15, -0.02, -34.85, 10.01, 7.32, 30.43, 14.00, 44.37,
122.12720942497253,1.03, 0.19, -0.13, -4.70, -17.82, 4.94, 30.33, 15.33, 43.97,
122.23711729049683,1.27, 0.50, -0.15, 7.87, -18.07, -3.48, 31.68, 15.58, 43.19,
122.34775829315186,0.81, 0.22, -0.26, 13.06, 19.53, -24.11, 32.24, 13.46, 40.94,
122.45860075950623,0.83, 0.19, -0.03, 14.47, -5.49, -22.03, 31.13, 14.12, 42.29,
122.56657481193542,0.97, 0.18, -0.03, -2.44, 19.59, -10.01, 30.73, 14.65, 43.69,
122.67761826515198,1.06, 0.28, -0.23, 7.75, 2.20, -11.96, 30.43, 15.39, 44.23,
122.78806591033936,1.34, -0.06, -0.20, 23.62, -19.65, -3.91, 30.80, 15.11, 43.85,
122.89765691757202,0.83, -0.02, -0.30, -21.61, -16.42, 7.75, 31.80, 14.92, 43.71,
123.00645089149475,1.02, 0.14, -0.02, -16.85, -5.62, 18.31, 31.54, 15.94, 42.63,
123.11665439605713,0.93, 0.10, -0.09, -6.16, 14.40, 17.40, 31.26, 14.77, 43.10,
123.22585415840149,0.93, 0.10, -0.06, -10.86, -6.35, 5.19, 31.40, 15.33, 43.21,
123.33612632751465,1.16, 0.14, -0.11, -14.16, -10.99, 6.04, 31.63, 15.37, 42.19,
123.44664931297302,0.79, 0.25, -0.21, 14.34, -15.87, 15.56, 32.74, 14.72, 41.85,
123.55620670318604,1.10, 0.18, -0.10, 8.61, 32.78, -12.76, 32.37, 14.01, 41.75,
123.66694283485413,0.79, 0.21, -0.11, 7.57, -1.59, -8.18, 31.43, 14.06, 41.85,
123.77889728546143,0.87, 0.23, -0.08, -1.77, 12.57, -4.88, 30.11, 14.71, 42.97,
123.88826203346252,1.19, 0.38, -0.16, 19.35, 7.26, -12.51, 30.40, 14.86, 43.65,
123.99798846244812,1.28, 0.02, -0.14, 17.52, -21.12, -7.14, 30.47, 14.01, 43.05,
124.10824370384216,0.89, 0.07, -0.29, -17.15, -15.32, 4.03, 32.21, 14.09, 41.75,
124.21887826919556,0.94, 0.17, 0.00, -7.39, -22.28, 11.29, 31.58, 14.40, 41.92,
124.32961654663086,0.99, 0.14, -0.04, -5.92, 24.60, 7.57, 32.78, 14.00, 40.43,
124.43840956687927,0.92, 0.09, -0.02, 5.13, -8.85, 4.39, 32.32, 13.06, 41.71,
124.54816889762878,1.30, 0.26, -0.06, -4.88, -21.12, -0.12, 32.32, 13.71, 42.15,
124.65892696380615,0.77, 0.20, -0.16, 14.47, -8.24, 2.14, 33.35, 12.74, 39.90,
124.76823544502258,1.07, 0.14, -0.02, -0.06, 32.84, -13.06, 32.37, 12.98, 40.72,
124.87878918647766,0.84, 0.18, -0.06, -1.22, 8.00, -11.41, 31.85, 14.03, 40.34,
124.98799991607666,0.91, 0.24, -0.07, -12.94, 15.99, 1.16, 30.80, 14.33, 42.96,
125.09746026992798,1.21, 0.35, -0.13, 13.06, 15.08, -2.38, 29.65, 15.61, 43.55,
125.20777440071106,0.88, 0.05, -0.26, 3.78, -19.47, 6.23, 30.22, 14.40, 43.91,
125.31706476211548,1.03, 0.13, -0.23, -34.61, 24.66, 0.85, 31.21, 15.48, 43.10,
125.42734932899475,0.71, 0.19, -0.09, -1.46, -29.48, 11.05, 31.40, 15.93, 42.68,
125.5374345779419,1.00, 0.15, -0.03, -3.05, 18.62, 5.62, 31.32, 15.08, 42.48,
125.64787793159485,1.04, 0.16, -0.09, -3.97, 13.43, 7.45, 30.03, 15.09, 42.26,
125.75663137435913,1.13, 0.48, -0.16, 9.83, -27.65, 4.52, 29.91, 14.64, 43.26,
125.86653232574463,0.86, 0.16, -0.28, 20.26, 13.00, -19.53, 31.14, 14.71, 43.49,
125.97684955596924,0.82, 0.19, -0.11, 7.51, -4.70, -17.64, 30.03, 14.11, 43.75,
126.08676934242249,0.97, 0.21, -0.08, -3.78, 21.12, -4.76, 29.52, 14.61, 43.85,
126.19568967819214,1.04, 0.33, -0.23, 1.28, 1.22, -5.55, 29.25, 15.30, 44.95,
126.30601119995117,1.26, 0.02, -0.15, 5.98, -3.48, 0.98, 28.83, 15.01, 44.27,
126.41547107696533,0.69, 0.02, -0.33, -20.20, -29.66, 8.79, 30.37, 15.21, 43.69,
126.52557110786438,1.08, 0.20, -0.05, -12.70, 7.45, 15.08, 31.36, 15.78, 42.65,
126.63531827926636,0.88, 0.16, -0.13, -4.64, -6.23, 7.75, 31.20, 15.38, 42.53,
126.74528121948242,0.96, 0.20, -0.12, 1.71, -7.93, 4.64, 31.10, 15.72, 42.05,
126.85504531860352,1.18, 0.15, 0.00, -10.86, -15.44, -1.16, 30.97, 15.53, 43.37,
126.96411395072937,0.86, 0.21, -0.18, 27.47, -25.21, 7.51, 32.41, 15.15, 40.95,
127.07564067840576,1.02, 0.11, -0.09, 7.39, 31.25, -14.89, 32.90, 14.42, 40.91,
127.18461847305298,0.79, 0.22, -0.06, 6.59, -9.09, -19.04, 31.38, 15.22, 41.66,
127.2942283153534,0.95, 0.20, -0.03, -3.97, 15.01, -2.08, 30.97, 16.55, 43.03,
127.40457582473755,1.21, 0.27, -0.12, 10.74, 16.66, -2.69, 30.74, 16.13, 43.20,
127.51459527015686,0.99, -0.02, -0.20, -2.69, -25.63, 1.59, 30.70, 15.61, 42.41,
127.62426090240479,0.97, 0.13, -0.28, -26.37, 4.46, 6.65, 32.18, 16.16, 42.52,
127.73373651504517,0.82, 0.17, -0.06, -4.21, -32.17, 12.82, 31.37, 16.16, 42.47,
127.84341859817505,1.02, 0.21, -0.01, -6.53, 14.28, 1.46, 33.31, 15.37, 41.33,
127.95277428627014,1.02, 0.12, -0.05, -3.23, 3.72, 1.34, 32.13, 16.05, 42.44,
128.06221985816956,1.29, 0.33, -0.08, -2.26, -21.24, -11.17, 33.19, 16.58, 41.25,
128.17254185676575,0.84, 0.17, -0.27, 32.23, -0.37, -11.17, 33.90, 15.78, 40.01,
128.2826600074768,1.00, 0.09, 0.04, 3.48, 16.60, -23.93, 32.86, 15.75, 41.53,
128.39188742637634,0.90, 0.12, -0.09, -4.03, 14.16, -15.20, 32.52, 16.89, 40.58,
128.50171160697937,0.93, 0.18, -0.11, 2.14, 0.06, -3.54, 31.38, 18.31, 42.30,
128.61171698570251,1.24, 0.17, 0.02, 19.90, -3.97, 2.87, 31.48, 17.88, 42.29,
128.7202069759369,0.84, -0.03, -0.16, -9.77, -11.47, -0.24, 32.20, 16.24, 41.61,
128.830890417099,1.16, 0.12, -0.19, -34.18, 19.84, 9.03, 32.86, 16.76, 42.16,
128.9404489994049,0.78, 0.11, -0.09, 6.77, -23.80, 16.24, 33.36, 16.65, 41.75,
129.05032992362976,0.99, 0.10, 0.04, 1.89, 5.31, 5.00, 32.71, 15.81, 41.80,
129.15998148918152,1.08, 0.12, -0.02, 0.12, 7.08, 5.31, 32.46, 15.37, 41.82,
129.26956343650818,1.33, 0.26, -0.07, -5.37, -23.01, -6.04, 32.23, 14.92, 42.30,
129.37957382202148,0.84, 0.18, -0.27, 1.89, -5.19, -6.59, 33.33, 15.64, 38.99,
129.48933172225952,0.96, 0.17, 0.02, -2.99, 8.97, -17.46, 32.63, 16.35, 40.61,
129.59933590888977,0.93, 0.16, -0.00, -5.43, 18.86, -9.52, 32.30, 17.42, 40.41,
129.70930004119873,0.92, 0.20, -0.05, 0.49, 8.79, 4.39, 31.77, 17.66, 40.86,
129.81956386566162,1.28, 0.25, -0.07, 23.74, 1.22, 2.20, 31.13, 17.19, 41.86,
129.929771900177,0.77, -0.02, -0.21, 1.59, -20.87, 7.32, 32.21, 15.56, 41.42,
130.03960466384888,1.20, 0.18, -0.08, -28.81, 28.81, 8.12, 33.30, 15.52, 40.52,
130.14910054206848,0.72, 0.14, -0.10, 7.69, -21.55, 10.25, 32.81, 14.93, 40.32,
130.25985503196716,0.96, 0.13, 0.05, 6.35, 7.45, 0.79, 33.46, 14.78, 40.42,
130.3680920600891,1.12, 0.08, 0.08, -16.60, 11.29, 5.07, 32.58, 14.39, 41.10,
130.4779453277588,1.23, 0.45, -0.03, 17.52, -31.25, -2.26, 32.92, 15.43, 40.36,
130.58797883987427,0.88, 0.14, -0.29, 13.12, 16.97, -13.12, 34.28, 14.58, 38.75,
130.6976683139801,0.87, 0.16, -0.01, -0.98, -6.10, -24.66, 32.47, 15.01, 41.21,
130.806086063385,0.97, 0.14, 0.02, -4.70, 25.45, -12.08, 32.15, 16.58, 41.26,
130.91685485839844,0.97, 0.16, -0.11, 1.40, 11.11, -1.59, 30.55, 17.96, 42.68,
131.02581906318665,1.33, 0.13, -0.08, 18.19, -12.57, 5.98, 30.46, 16.55, 43.44,
131.1347861289978,0.76, -0.03, -0.22, -18.55, -15.20, 6.10, 32.46, 17.04, 42.09,
131.24528288841248,1.11, 0.15, -0.11, -29.79, 19.29, 16.30, 32.37, 17.19, 41.97,
131.35496068000793,0.76, 0.14, -0.11, 3.48, -14.10, 15.01, 32.82, 17.08, 40.60,
131.4658167362213,0.96, 0.16, -0.00, 4.09, 2.62, 5.43, 33.00, 15.60, 41.15,
131.57456064224243,1.08, 0.12, 0.07, 1.40, 11.05, 14.77, 32.17, 15.11, 43.21,
131.68349361419678,1.03, 0.46, -0.14, 5.37, -23.13, 7.57, 33.13, 14.77, 42.38,
131.79390168190002,0.93, 0.21, -0.27, 12.39, 29.42, -14.89, 32.29, 14.03, 40.64,
131.9025113582611,0.82, 0.17, -0.04, 1.77, -14.40, -16.42, 31.92, 14.51, 41.30,
132.01104927062988,0.99, 0.19, -0.03, -8.73, 23.38, -14.16, 31.52, 15.22, 41.05,
132.12117385864258,1.02, 0.27, -0.15, 0.49, 1.22, -6.23, 30.97, 16.54, 42.96,
132.23106479644775,1.27, 0.03, -0.15, 13.37, -9.52, 7.20, 30.60, 16.30, 43.05,
132.34187078475952,0.73, 0.00, -0.27, -24.05, -26.92, 5.80, 32.57, 16.24, 42.26,
132.4509208202362,1.10, 0.18, 0.03, -21.36, -0.06, 9.22, 31.85, 17.24, 42.80,
132.56042218208313,0.86, 0.15, -0.09, -3.30, 2.99, 8.73, 33.09, 16.59, 40.16,
132.670001745224,0.91, 0.14, -0.05, 3.17, -0.18, -0.31, 32.73, 16.13, 40.87,
132.77896881103516,1.13, 0.09, -0.03, -17.70, -9.64, -4.58, 32.10, 16.33, 42.35,
132.8883240222931,0.81, 0.25, -0.18, 26.86, -29.05, -0.55, 33.40, 17.08, 40.87,
132.99821853637695,1.08, 0.08, -0.04, 19.78, 44.37, -17.27, 33.25, 16.36, 41.30,
133.10857820510864,0.75, 0.14, -0.08, 7.51, -2.08, -16.11, 32.90, 17.04, 41.10,
133.21846437454224,0.93, 0.16, -0.01, 3.60, 9.64, -8.00, 31.77, 17.42, 41.16,
133.32687997817993,1.25, 0.16, -0.06, 16.42, 10.19, -4.27, 31.75, 17.10, 42.68,
133.4377565383911,1.25, -0.15, -0.08, 4.76, -16.24, 0.43, 32.79, 16.19, 41.31,
133.54567313194275,0.92, 0.03, -0.24, -29.05, -0.61, 8.12, 33.81, 16.33, 40.32,
133.65674591064453,0.89, 0.10, -0.03, -7.87, -26.86, 16.17, 32.86, 16.98, 40.95,
133.7666096687317,0.97, 0.08, 0.03, -2.99, 12.21, 9.77, 32.59, 15.69, 40.78,
133.8768379688263,1.00, 0.11, -0.01, 0.85, 5.55, 4.82, 33.19, 15.89, 41.26,
133.9857051372528,1.30, 0.16, -0.06, -12.45, -15.44, 0.43, 32.74, 16.03, 41.80,
134.09420704841614,0.77, 0.18, -0.18, 16.60, -19.35, 8.36, 34.55, 16.16, 40.60,
134.20338773727417,1.11, 0.13, 0.02, 8.91, 26.31, -16.42, 33.04, 14.72, 40.27,
134.3121407032013,0.81, 0.18, -0.05, 1.83, 10.62, -17.58, 33.58, 15.44, 40.26,
134.4217562675476,0.92, 0.19, -0.02, -1.34, 3.72, -12.94, 32.17, 16.88, 41.64,
134.53181052207947,1.28, 0.20, 0.03, 12.45, 8.73, -11.35, 31.32, 17.70, 41.72,
134.6414921283722,0.96, -0.15, -0.13, 4.64, -15.56, -4.46, 33.14, 16.87, 40.73,
134.75092005729675,1.01, -0.01, -0.18, -38.02, 13.67, 9.83, 33.65, 17.82, 41.93,
134.86126971244812,0.82, 0.03, -0.01, -4.82, -24.78, 20.51, 33.20, 18.08, 40.88,
134.97153782844543,0.96, 0.03, 0.05, 1.28, 10.74, 16.66, 33.83, 16.91, 40.77,
135.07989144325256,1.09, 0.06, -0.00, -9.95, 8.79, 13.73, 33.23, 15.50, 40.82,
135.18966579437256,1.34, 0.36, -0.07, -5.62, -25.39, -3.85, 33.53, 16.02, 41.19,
135.2990391254425,0.82, 0.16, -0.22, 21.55, 0.61, 3.17, 34.40, 14.59, 39.36,
135.40853834152222,0.86, 0.14, 0.02, 9.58, 0.24, -32.84, 33.40, 14.97, 40.09,
135.51848983764648,0.93, 0.18, 0.04, -1.34, 18.13, -20.51, 32.69, 16.83, 41.71,
135.62741351127625,0.95, 0.21, -0.13, 10.68, 4.39, -12.94, 31.68, 17.59, 42.64,
135.737318277359,1.36, 0.02, -0.13, 27.28, -11.72, -4.76, 30.94, 17.94, 42.63,
135.8460123538971,0.74, -0.11, -0.25, -8.42, -31.74, 1.59, 32.04, 16.31, 41.10,
135.95640230178833,1.06, 0.03, 0.01, -33.02, 7.93, 22.09, 32.75, 17.87, 41.63,
136.0652666091919,0.79, 0.11, -0.01, -10.62, 5.07, 28.93, 33.85, 16.65, 40.80,
136.17502450942993,0.91, 0.09, -0.02, 1.59, -3.85, 11.96, 33.29, 14.92, 41.48,
136.2854495048523,1.15, 0.16, -0.03, -9.46, -14.59, 0.79, 33.80, 14.86, 39.99,
136.3958888053894,0.84, 0.23, -0.11, 20.81, -19.10, 14.83, 35.06, 14.93, 39.56,
136.50683283805847,1.09, 0.17, -0.07, 20.14, 31.31, -10.31, 35.07, 13.72, 39.38,
136.6152060031891,0.78, 0.20, -0.02, 6.71, 10.86, -26.98, 33.26, 14.29, 40.97,
136.72618556022644,0.89, 0.22, 0.02, -3.72, 10.99, -15.81, 32.89, 15.60, 41.19,
136.83532810211182,1.31, 0.23, -0.07, 17.33, 8.61, -13.18, 32.50, 15.76, 42.75,
136.94566655158997,1.26, -0.18, -0.10, 4.70, -18.98, -10.38, 33.29, 15.83, 41.98,
137.05532670021057,0.98, -0.05, -0.26, -36.80, -1.65, -0.98, 33.70, 17.64, 41.04,
137.16569805145264,0.87, 0.01, -0.01, -6.16, -21.97, 18.92, 34.06, 18.42, 39.90,
137.27547359466553,0.96, 0.07, 0.07, 16.66, 2.62, 11.78, 34.86, 17.68, 40.01,
137.38531589508057,1.06, -0.01, 0.07, 7.87, -0.61, -5.80, 34.48, 15.58, 41.97,
137.49411630630493,1.33, 0.17, 0.02, 5.07, -18.13, 0.55, 35.21, 16.39, 40.22,
137.6029975414276,0.74, 0.14, -0.10, 39.55, -5.68, 18.68, 36.67, 14.21, 38.94,
137.71222949028015,1.07, 0.04, 0.04, 30.15, 13.85, 9.58, 36.04, 10.47, 39.61,
137.82184839248657,0.77, 0.18, 0.02, -6.35, 16.17, -6.35, 35.29, 9.79, 38.43,
137.93085432052612,0.92, 0.23, 0.05, 3.85, 10.13, -16.72, 34.80, 10.45, 40.98,
138.0405023097992,1.20, 0.25, 0.03, 8.00, -3.60, -28.02, 34.31, 12.08, 41.61,
138.15053033828735,0.95, -0.15, -0.10, 9.58, -22.64, -13.92, 36.02, 12.87, 40.21,
138.26041769981384,0.99, 0.01, -0.00, -18.98, -3.72, -1.28, 36.87, 13.75, 38.34,
138.37051439285278,0.81, -0.02, 0.06, -2.14, -9.77, 8.00, 37.67, 13.75, 37.06,
138.47951936721802,0.85, -0.07, 0.13, -2.01, 3.72, 7.14, 36.79, 13.23, 39.31,
138.58800864219666,1.18, -0.11, 0.16, -15.14, -2.93, 1.65, 36.68, 12.81, 38.75,
138.6975154876709,1.37, 0.26, 0.24, -15.14, -12.88, 4.70, 37.46, 13.26, 38.81,
138.80603504180908,0.88, 0.16, -0.05, 21.67, 25.15, -8.97, 38.55, 13.06, 36.79,
138.91661286354065,0.76, 0.01, 0.10, 22.58, 0.61, -15.87, 37.46, 11.89, 37.70,
139.02573609352112,0.98, 0.06, 0.12, 1.04, 17.52, -21.97, 36.44, 12.72, 38.81,
139.13470697402954,1.03, 0.09, -0.00, 16.60, 10.31, -14.53, 36.19, 14.47, 39.75,
139.2445569038391,1.27, -0.26, -0.05, 0.98, -15.14, -5.49, 36.56, 14.49, 39.48,
139.35315418243408,0.87, -0.18, -0.17, -21.12, -0.92, 1.40, 37.32, 15.19, 38.89,
139.4633333683014,0.87, -0.14, 0.02, -21.85, -1.22, 21.12, 37.06, 15.58, 40.00,
139.5739140510559,0.90, 0.01, 0.05, 9.28, 5.80, 15.63, 37.70, 14.54, 40.10,
139.68439865112305,1.04, -0.11, 0.08, -10.31, 4.76, -4.21, 36.74, 13.18, 39.89,
139.79356479644775,1.13, -0.06, 0.16, -18.98, -18.25, 5.31, 37.16, 14.38, 39.66,
139.90326499938965,0.92, 0.11, 0.04, 24.41, -26.18, 6.71, 37.70, 14.03, 37.95,
140.01379108428955,1.10, 0.02, 0.00, 29.85, 29.24, -1.65, 37.89, 13.01, 38.09,
140.12260937690735,0.76, 0.03, 0.02, 1.77, 3.97, -9.83, 36.57, 12.23, 38.35,
140.23412013053894,0.91, 0.12, 0.11, 13.61, 15.99, -13.85, 36.38, 13.34, 40.34,
140.34395122528076,1.36, -0.00, 0.02, 10.01, 1.16, -11.96, 35.72, 13.35, 39.22,
140.45458984375,1.14, -0.25, 0.07, -0.18, -12.39, -16.05, 37.32, 13.24, 39.58,
140.56391501426697,1.14, -0.16, -0.11, -24.72, 7.45, -4.09, 37.68, 15.23, 39.33,
140.67438912391663,0.77, -0.11, 0.03, 0.12, -5.86, 19.41, 37.15, 15.41, 38.56,
140.7848036289215,0.96, -0.09, 0.13, -2.44, 13.55, 7.14, 37.51, 14.01, 38.72,
140.8940041065216,1.13, -0.20, 0.07, -5.86, -11.90, 15.56, 37.43, 13.71, 39.98,
141.0034396648407,1.35, 0.08, 0.17, 0.55, -32.96, 9.58, 37.45, 13.16, 37.83,
141.11264324188232,0.89, 0.05, -0.11, 10.44, -3.60, 9.09, 38.68, 11.19, 35.64,
141.2218005657196,0.85, 0.10, 0.16, 20.32, 1.28, -16.05, 39.04, 11.11, 36.45,
141.33015322685242,0.96, -0.01, 0.21, 3.30, 20.75, -16.36, 37.77, 11.47, 36.50,
141.4402244091034,1.06, 0.06, 0.07, 1.22, -0.61, -7.69, 37.57, 12.27, 37.99,
141.55033206939697,1.19, -0.18, 0.19, 2.99, -33.20, 1.59, 38.07, 13.22, 37.62,
141.66048502922058,0.84, -0.20, -0.07, -29.60, 5.74, -10.44, 39.81, 15.80, 36.17,
141.77071571350098,1.03, 0.03, 0.02, -11.29, -4.03, 9.46, 38.95, 16.17, 36.90,
141.8792245388031,0.81, -0.06, 0.20, 23.99, 8.79, 9.58, 39.18, 14.72, 36.38,
141.98823237419128,0.97, -0.28, 0.19, 4.58, 7.32, 4.39, 39.42, 13.28, 36.50,
142.09871745109558,1.16, -0.02, 0.13, -34.30, -16.30, 8.61, 38.84, 13.99, 37.05,
142.2080135345459,0.84, 0.07, 0.03, 10.62, -16.36, 23.56, 39.83, 14.33, 35.71,
142.31810355186462,1.16, 0.06, 0.09, 18.98, 27.71, -5.49, 39.20, 12.99, 35.19,
142.42702651023865,0.85, 0.01, 0.10, 0.55, 24.05, -13.49, 37.85, 12.30, 38.20,
142.53678607940674,0.94, 0.08, 0.06, -6.29, 6.77, -14.04, 36.71, 13.56, 39.06,
142.64513874053955,1.27, 0.02, 0.10, -2.56, -13.18, -12.82, 37.16, 15.70, 40.34,
142.75626587867737,0.86, -0.27, -0.06, -30.52, -19.84, -31.31, 38.64, 17.76, 38.22,
142.86634469032288,0.96, -0.07, -0.01, -47.18, 9.34, 13.92, 37.90, 20.30, 37.54,
142.97730588912964,0.79, -0.09, 0.08, 4.76, 1.89, 16.30, 37.38, 20.17, 38.40,
143.08744406700134,0.92, -0.19, 0.15, 9.64, -2.99, 18.37, 37.01, 17.16, 38.50,
143.1971139907837,1.19, -0.11, 0.16, -14.40, -18.25, 9.83, 37.79, 17.14, 37.12,
143.30786752700806,0.86, 0.25, -0.03, 44.62, -19.04, 14.10, 38.71, 15.59, 36.24,
143.41717076301575,1.04, -0.06, 0.04, 37.41, 14.22, 1.40, 39.15, 12.99, 36.16,
143.52745175361633,0.75, 0.03, 0.09, 3.05, 14.53, -5.55, 37.62, 11.49, 36.77,
143.63685822486877,0.95, 0.08, 0.13, -8.12, 8.79, -6.04, 36.94, 12.38, 38.48,
143.74764847755432,1.22, 0.10, 0.18, 5.13, -18.25, -13.31, 36.89, 14.12, 37.60,
143.85721278190613,0.98, -0.24, -0.04, -11.90, -14.65, -16.48, 38.99, 15.32, 37.74,
143.96747589111328,1.01, -0.02, 0.06, -25.51, -1.71, 1.16, 37.88, 17.43, 34.90,
144.07733631134033,0.76, -0.05, 0.17, -2.62, 6.77, 11.41, 38.88, 16.86, 34.73,
144.18715047836304,0.89, -0.16, 0.19, 5.68, 2.56, 14.04, 38.56, 15.64, 36.40,
144.29705047607422,1.17, -0.15, 0.22, -20.32, -18.80, 5.62, 37.99, 15.19, 37.28,
144.4063196182251,0.85, 0.32, -0.01, 18.43, -18.31, 12.94, 38.93, 14.84, 34.67,
144.51784086227417,1.03, -0.02, 0.09, 33.75, 23.68, -12.94, 38.32, 12.57, 37.81,
144.62732434272766,0.77, 0.03, 0.11, 3.85, 23.56, -6.47, 38.02, 12.18, 36.27,
144.7375829219818,0.96, 0.07, 0.10, -2.99, 11.17, -10.93, 37.21, 12.93, 38.28,
144.84742283821106,1.29, 0.05, 0.16, 6.35, -19.23, -11.78, 37.16, 14.34, 38.35,
144.95733618736267,0.88, -0.31, -0.09, -27.53, -15.14, -18.25, 38.33, 15.52, 37.66,
145.06857633590698,0.97, -0.04, 0.05, -24.90, -9.64, 0.37, 38.92, 18.69, 36.06,
145.17831301689148,0.78, -0.12, 0.18, 5.62, 2.69, 9.34, 38.90, 18.58, 36.06,
145.2875599861145,0.87, -0.22, 0.19, 2.01, -2.01, 15.08, 39.10, 16.85, 36.39,
145.39657282829285,1.29, -0.12, 0.20, -15.01, -11.17, 13.85, 39.07, 16.14, 37.63,
145.50680446624756,0.85, 0.16, -0.05, 7.93, -9.28, 25.57, 39.50, 15.61, 35.02,
145.6153483390808,0.87, -0.03, 0.12, 11.66, 13.85, -11.54, 38.53, 14.77, 36.19,
145.72506189346313,0.84, 0.10, 0.14, 3.66, 29.85, -3.72, 37.84, 15.42, 37.56,
145.8346495628357,1.02, 0.04, 0.04, -0.98, 12.02, -0.55, 37.16, 15.14, 39.58,
145.94361186027527,1.33, -0.03, 0.05, 6.71, -10.01, -1.34, 37.08, 15.53, 40.23,
146.05405354499817,0.92, -0.31, -0.14, -41.56, -4.09, 0.49, 37.84, 16.24, 38.61,
146.16460347175598,0.85, 0.04, 0.03, -41.69, -16.24, 18.01, 37.71, 18.64, 38.23,
146.27429699897766,0.81, -0.04, 0.14, 0.92, 1.89, 10.31, 38.15, 18.77, 36.28,
146.38367891311646,1.00, -0.11, 0.09, 3.42, 3.54, -3.17, 37.72, 17.83, 37.72,
146.49282932281494,1.49, 0.19, 0.14, 0.79, -7.08, 12.02, 38.00, 17.83, 37.70,
146.60232710838318,0.91, 0.14, -0.14, 35.95, 19.71, 5.37, 37.92, 15.44, 36.23,
146.7126019001007,0.85, 0.12, 0.12, 30.58, 13.55, -18.37, 37.08, 14.00, 37.95,
146.82258367538452,0.87, 0.02, 0.05, 6.59, 20.32, -10.62, 35.72, 14.77, 39.73,
146.93164253234863,1.14, 0.15, -0.01, 0.79, -3.66, -12.70, 35.85, 15.05, 39.72,
147.04135417938232,1.39, -0.23, -0.05, -8.97, -21.30, -10.31, 36.68, 15.67, 39.76,
147.15129971504211,0.88, -0.08, -0.13, -30.03, 4.64, -1.16, 37.21, 18.47, 38.13,
147.2614769935608,0.76, -0.04, 0.04, -20.39, -5.37, 6.96, 37.54, 18.99, 37.65,
147.37147402763367,0.90, -0.08, 0.06, -9.58, 5.07, 3.23, 36.79, 19.06, 38.79,
147.48155331611633,1.21, -0.09, 0.18, -9.83, -6.53, 5.37, 36.95, 19.63, 38.45,
147.59082341194153,1.20, 0.24, 0.04, 21.42, -22.16, 15.81, 37.94, 18.47, 38.09,
147.6999318599701,1.02, 0.06, -0.06, 37.54, 29.60, -0.49, 37.65, 16.22, 37.56,
147.8093957901001,0.73, 0.05, 0.06, 25.57, 11.11, -8.54, 37.18, 15.01, 39.14,
147.91819143295288,0.90, 0.07, 0.09, 9.34, 10.07, -7.87, 36.52, 14.54, 39.03,
148.02728843688965,1.25, 0.10, 0.09, -3.30, -1.22, -15.69, 36.15, 15.25, 40.45,
148.13597559928894,1.06, -0.19, -0.00, -19.29, -16.48, -12.88, 37.22, 17.46, 39.18,
148.24583673477173,1.01, -0.05, -0.02, -41.56, 10.38, 14.10, 37.84, 18.25, 38.59,
148.3564555644989,0.75, -0.07, 0.11, -16.91, 1.77, 11.05, 37.48, 18.63, 37.87,
148.46650981903076,0.87, -0.10, 0.11, -11.66, 5.80, 6.35, 37.38, 18.55, 38.42,
148.5760040283203,1.32, -0.05, 0.15, -12.88, -8.36, 4.94, 37.65, 19.27, 38.45,
148.68592810630798,0.93, 0.12, -0.07, 20.02, -17.70, 16.78, 38.17, 18.82, 38.07,
148.79628920555115,1.04, 0.05, -0.02, 34.06, 18.07, 1.40, 37.79, 15.67, 38.29,
148.9057822227478,0.75, 0.00, 0.06, 25.76, 9.89, -5.68, 37.24, 15.19, 38.65,
149.01522588729858,0.93, 0.12, 0.05, 4.33, 7.69, -9.89, 36.61, 15.27, 39.70,
149.1252841949463,1.42, 0.18, 0.14, 13.37, -9.09, -5.43, 37.01, 15.09, 39.67,
149.2355329990387,1.00, -0.16, 0.07, -10.38, -5.55, -10.99, 37.79, 15.55, 38.18,
149.3453872203827,1.07, -0.03, -0.03, -50.90, 10.31, 5.13, 37.83, 16.15, 38.48,
149.4551694393158,0.74, 0.01, 0.04, -18.19, 5.43, 12.39, 37.33, 18.47, 39.48,
149.56556272506714,0.88, -0.09, 0.09, -13.06, 2.20, 4.33, 36.71, 17.98, 39.65,
149.67481565475464,1.31, 0.01, 0.09, -22.77, -14.28, -1.53, 36.80, 19.43, 39.25,
149.785724401474,0.81, 0.06, -0.11, 11.17, -8.12, 22.58, 37.52, 18.32, 37.85,
149.89528942108154,1.00, 0.13, -0.03, 37.35, 7.14, -11.35, 36.77, 17.10, 39.26,
150.00503182411194,0.78, 0.07, 0.06, 33.63, 21.12, -15.08, 36.34, 16.00, 39.65,
150.11511731147766,1.04, 0.11, -0.04, 11.29, 6.47, -14.04, 35.49, 15.67, 41.38,
150.2243971824646,1.37, -0.17, -0.08, 15.20, -19.17, -8.24, 36.88, 15.65, 41.08,
150.33407735824585,0.91, -0.23, -0.06, -30.94, -10.68, -6.16, 37.79, 17.94, 39.92,
150.44411182403564,0.79, -0.05, 0.03, -44.62, -15.99, 13.92, 38.15, 19.54, 38.92,
150.55400013923645,0.81, -0.02, 0.13, -5.86, 6.47, 14.95, 38.06, 20.23, 38.49,
150.66418838500977,1.25, -0.14, 0.16, 4.64, 1.77, 14.59, 37.66, 18.54, 38.50,
150.7744755744934,1.46, 0.31, 0.09, 1.16, -25.51, -3.78, 38.67, 18.32, 37.67,
150.88411211967468,0.85, 0.13, 0.04, 27.34, 13.79, -3.42, 38.96, 16.03, 36.99,
150.9947383403778,0.76, 0.01, 0.04, 29.79, 6.77, -8.24, 38.60, 15.05, 37.33,
151.1040494441986,0.88, -0.03, 0.17, -5.74, 26.79, -8.73, 37.26, 14.66, 39.25,
151.21287941932678,1.37, 0.12, 0.06, -1.59, 21.12, -15.63, 36.29, 16.94, 40.53,
151.32259368896484,1.26, -0.43, -0.03, -18.19, -11.66, -5.07, 36.77, 16.85, 41.42,
151.4332995414734,1.01, -0.07, -0.12, -64.27, 14.71, 6.35, 37.65, 18.97, 39.31,
151.54326605796814,0.75, -0.01, -0.01, -34.36, -3.72, 8.79, 36.84, 22.91, 41.42,
151.65345644950867,0.94, -0.07, 0.09, -9.83, 2.38, -0.85, 36.89, 22.99, 40.31,
151.76341271400452,1.16, -0.12, 0.11, -17.09, -7.20, -2.87, 36.71, 24.10, 40.20,
151.87341594696045,1.05, 0.21, -0.09, 34.67, -15.75, 11.78, 37.87, 24.21, 39.23,
151.98199939727783,1.03, -0.04, -0.02, 39.31, 19.84, -10.68, 37.60, 21.45, 39.05,
152.09220576286316,0.70, 0.01, 0.03, 35.46, 13.79, -13.43, 37.00, 20.91, 40.49,
152.20199513435364,0.93, -0.02, -0.07, 20.69, -4.88, -13.85, 36.15, 19.57, 41.21,
152.31206560134888,1.46, -0.15, -0.05, 1.28, -19.53, -9.22, 36.95, 20.80, 41.38,
152.42216300964355,0.89, -0.25, -0.09, -19.41, -12.63, 2.26, 38.49, 21.42, 39.64,
152.53183436393738,0.87, -0.11, 0.03, -33.02, -17.21, 13.31, 38.18, 22.01, 38.51,
152.64201402664185,0.79, -0.08, 0.15, 3.17, 2.99, 16.36, 38.27, 21.94, 37.60,
152.75334644317627,1.00, -0.16, 0.14, -3.48, -1.95, -5.19, 38.13, 21.29, 38.06,
152.86264729499817,1.43, 0.08, 0.11, 13.92, -13.98, 6.16, 38.62, 22.30, 38.01,
152.97119069099426,0.96, 0.03, -0.14, 40.83, 22.77, 7.08, 39.06, 18.26, 38.18,
153.0815773010254,0.84, -0.07, 0.10, 14.89, 3.05, 5.43, 38.04, 16.03, 40.42,
153.19136118888855,0.86, 0.02, 0.07, 5.25, 19.10, -2.20, 37.06, 16.44, 39.44,
153.30032396316528,1.11, 0.11, -0.01, -11.90, -6.16, -16.48, 36.19, 17.07, 40.76,
153.41034412384033,1.45, -0.36, 0.02, 2.50, -9.64, -3.05, 37.83, 17.40, 40.32,
153.520001411438,0.95, -0.10, -0.13, -42.24, 5.68, -5.92, 38.43, 18.65, 39.43,
153.6307771205902,0.81, -0.08, 0.03, -22.64, -4.88, 13.18, 37.60, 21.51, 40.00,
153.74048042297363,0.96, -0.05, 0.08, -24.23, 12.94, 4.64, 37.39, 22.09, 40.95,
153.84906888008118,1.23, -0.06, 0.07, -11.84, -4.76, 14.34, 37.19, 21.90, 40.54,
153.95916962623596,1.05, 0.27, -0.06, 35.16, -20.02, 19.35, 37.99, 21.63, 38.79,
154.06961011886597,1.02, 0.02, -0.02, 42.24, 14.40, -7.75, 38.05, 18.13, 38.75,
154.1792449951172,0.75, 0.04, 0.06, 26.98, 10.38, -9.03, 37.39, 17.02, 40.61,
154.28860425949097,0.92, 0.11, 0.08, 5.13, 2.01, -8.36, 36.79, 17.36, 40.42,
154.39736127853394,1.25, 0.12, 0.14, 16.54, -10.07, -6.29, 37.29, 17.05, 40.61,
154.5070652961731,0.88, -0.20, -0.07, -2.14, -11.96, -5.37, 38.29, 16.92, 39.09,
154.6171863079071,1.06, 0.00, -0.00, -36.80, 8.91, 14.83, 38.62, 17.37, 38.82,
154.72672867774963,0.80, -0.01, 0.09, -10.99, 3.91, 4.52, 38.00, 17.77, 38.61,
154.83729600906372,0.95, -0.11, 0.10, -10.19, 0.92, 2.38, 37.95, 17.74, 39.07,
154.9470386505127,1.11, -0.13, 0.11, -19.71, -18.74, 5.37, 37.49, 17.99, 39.17,
155.0574450492859,0.89, 0.13, -0.09, 23.44, -11.41, 19.53, 39.20, 18.98, 37.32,
155.166672706604,0.94, -0.04, 0.04, 19.78, 14.77, -6.29, 38.46, 16.27, 38.75,
155.2752227783203,0.90, 0.00, 0.05, 26.67, 17.88, -2.93, 37.52, 15.80, 38.45,
155.3845818042755,0.93, 0.13, 0.05, 27.40, -0.92, -3.42, 37.84, 14.28, 39.42,
155.49569368362427,1.24, -0.02, 0.13, 29.05, -28.32, -5.31, 38.29, 12.70, 39.90,
155.60561776161194,0.87, -0.21, -0.10, -6.59, -8.30, -6.53, 39.50, 12.92, 37.22,
155.7148745059967,1.01, 0.00, 0.04, -36.38, 0.24, 6.65, 39.78, 14.71, 38.12,
155.8239996433258,0.77, 0.01, 0.10, -7.32, 9.28, 9.34, 38.50, 15.16, 37.99,
155.93291473388672,1.00, -0.15, 0.10, -5.62, 4.15, 12.27, 38.33, 14.22, 38.73,
156.04359698295593,1.27, -0.02, 0.14, -12.76, -18.43, -1.46, 38.27, 14.90, 38.64,
156.15309047698975,0.87, 0.26, -0.06, 27.89, -14.83, 14.10, 39.10, 14.51, 36.68,
156.26330065727234,1.00, 0.04, 0.07, 28.81, 8.42, -5.07, 38.31, 12.06, 37.66,
156.37209677696228,0.82, -0.05, 0.11, 3.05, 18.98, -8.36, 38.21, 11.34, 36.61,
156.4820647239685,1.00, 0.12, 0.08, -2.44, 3.42, -6.10, 37.55, 12.46, 39.04,
156.5927131175995,1.41, -0.17, 0.07, 11.41, -27.40, -8.73, 38.76, 12.27, 38.57,
156.70239758491516,1.01, -0.20, -0.12, -31.62, 5.68, -14.53, 39.20, 14.26, 38.18,
156.81248259544373,0.85, -0.07, 0.02, -46.02, -4.09, 16.48, 38.79, 17.00, 38.11,
156.9226520061493,0.81, -0.02, 0.09, -13.73, 14.22, 8.00, 38.71, 17.13, 38.33,
157.03274416923523,1.01, -0.10, 0.12, 3.11, -4.58, 6.59, 37.72, 17.65, 38.94,
157.14188933372498,1.53, 0.11, 0.13, -10.13, -24.60, 8.97, 37.65, 17.25, 39.21,
157.2514090538025,0.80, 0.17, -0.04, 28.38, 0.73, 13.18, 38.46, 15.09, 36.83,
157.361243724823,0.83, 0.06, 0.06, 43.58, 7.14, -5.19, 38.28, 13.42, 38.26,
157.47055983543396,0.91, 0.03, 0.11, 19.29, 21.55, -7.14, 37.08, 11.96, 38.18,
157.5787808895111,1.13, 0.08, 0.06, 9.64, -3.17, -16.48, 36.32, 12.89, 39.03,
157.68881177902222,1.35, -0.31, -0.00, 7.93, -28.93, -9.22, 37.84, 12.87, 38.82,
157.79923701286316,1.00, -0.21, -0.05, -51.33, 6.23, -9.03, 38.45, 14.09, 37.72,
157.90927147865295,0.81, -0.04, 0.05, -57.37, -0.49, 14.34, 37.95, 16.60, 38.88,
158.01837038993835,0.92, -0.02, 0.14, -26.25, 14.28, 11.84, 37.12, 18.55, 38.53,
158.12718725204468,1.20, -0.06, 0.10, -17.64, -1.59, 5.00, 37.06, 17.90, 39.20,
158.23761010169983,1.34, 0.35, 0.07, 18.25, -25.45, -2.50, 38.26, 18.42, 38.34,
158.3463544845581,0.95, 0.07, -0.00, 48.34, 25.63, -0.12, 38.00, 15.48, 37.43,
158.45669555664062,0.65, 0.05, 0.02, 43.03, 6.77, -12.27, 37.37, 14.16, 37.63,
158.5649447441101,0.95, 0.06, 0.10, 14.53, 14.40, -8.12, 36.63, 13.44, 39.66,
158.6754174232483,1.29, 0.07, 0.09, 11.41, 3.36, -12.82, 35.84, 13.07, 38.96,
158.78399968147278,1.25, -0.27, 0.02, -23.74, -10.44, -17.27, 37.78, 13.35, 39.60,
158.8949692249298,1.00, -0.11, -0.04, -61.46, 9.83, 1.77, 37.37, 15.52, 38.07,
159.0063931941986,0.70, 0.02, 0.05, -45.41, 1.46, 19.35, 37.10, 17.75, 38.50,
159.1162395477295,0.94, -0.09, 0.10, -13.37, 5.68, 17.70, 36.60, 17.64, 39.27,
159.2255642414093,1.29, -0.02, 0.17, -29.11, -14.53, 6.53, 36.82, 17.11, 38.81,
159.33539724349976,0.92, 0.36, -0.08, 27.83, -18.92, 6.77, 37.43, 17.82, 37.51,
159.444895029068,0.98, 0.06, 0.01, 65.43, 19.41, -5.13, 37.71, 14.22, 38.55,
159.55570530891418,0.71, 0.05, 0.08, 49.07, 17.33, -12.21, 36.91, 11.78, 39.03,
159.66402745246887,0.95, 0.07, 0.09, 19.29, 3.48, -10.80, 36.76, 11.00, 38.64,
159.77428221702576,1.29, 0.04, 0.20, 5.37, -15.75, -12.63, 36.99, 11.46, 39.73,
159.88378643989563,0.88, -0.26, -0.09, -35.22, -5.07, -7.45, 38.37, 13.20, 38.38,
159.99463891983032,0.93, -0.02, 0.01, -57.86, 5.74, 10.19, 38.23, 15.84, 38.61,
160.1031997203827,0.76, -0.05, 0.08, -31.25, 11.72, 5.92, 37.51, 18.49, 38.89,
160.21365809440613,1.00, -0.12, 0.09, -13.37, -4.09, 5.25, 37.27, 19.40, 39.22,
160.32395958900452,1.48, 0.06, 0.10, 5.62, -13.73, 2.87, 38.17, 19.27, 38.56,
160.43448734283447,0.85, 0.20, -0.12, 59.27, 5.49, 24.48, 38.46, 16.48, 38.09,
160.5430908203125,0.86, -0.03, 0.05, 41.81, 8.12, 7.32, 37.49, 12.45, 39.23,
160.65351939201355,0.86, 0.07, 0.08, 9.58, 22.83, -5.68, 36.55, 10.52, 40.50,
160.76305294036865,1.13, 0.10, 0.02, 11.05, -6.77, -23.44, 36.60, 11.16, 40.73,
160.87304735183716,1.44, -0.33, -0.06, -13.31, -18.37, -16.72, 37.81, 12.72, 39.95,
160.9829387664795,0.89, -0.15, -0.08, -51.45, 5.37, -5.07, 37.74, 15.33, 39.18,
161.09294319152832,0.78, -0.06, 0.01, -47.73, 0.55, 9.64, 37.70, 17.74, 38.33,
161.20241522789001,0.91, -0.06, 0.10, -22.77, 5.37, 4.09, 36.99, 19.47, 39.53,
161.31178736686707,1.27, -0.08, 0.13, -13.79, -9.77, 7.57, 37.02, 19.68, 40.60,
161.42235231399536,1.05, 0.31, -0.06, 29.91, -24.48, 18.86, 37.40, 18.92, 37.62,
161.53179264068604,0.98, 0.05, 0.00, 54.02, 25.76, -7.69, 37.33, 15.55, 38.99,
161.64226841926575,0.73, 0.00, 0.04, 40.65, 15.32, -7.57, 37.04, 13.67, 39.33,
161.75215578079224,0.97, 0.08, 0.04, 14.59, 3.23, -14.77, 36.63, 12.71, 39.86,
161.862318277359,1.25, 0.09, 0.14, 17.03, -14.71, -10.07, 37.67, 14.10, 40.48,
161.97080159187317,0.87, -0.29, -0.07, -24.54, -4.70, -1.95, 38.83, 13.51, 39.69,
162.08128905296326,0.89, -0.06, -0.02, -70.68, 4.58, 15.93, 37.95, 15.11, 38.79,
162.19090723991394,0.78, -0.01, 0.05, -38.09, 8.73, 12.70, 36.90, 18.24, 39.69,
162.30112314224243,0.96, -0.11, 0.06, -11.47, -5.13, 10.56, 36.69, 18.76, 40.11,
162.41020917892456,1.58, 0.19, 0.02, 1.53, -13.79, -2.38, 37.16, 19.13, 38.62,
162.51993680000305,0.85, 0.19, -0.11, 64.45, 11.23, 6.65, 37.99, 17.30, 37.48,
162.63024377822876,0.79, -0.03, 0.01, 54.26, 9.64, -10.50, 37.76, 13.98, 39.27,
162.74123883247375,0.92, 0.02, 0.08, 19.29, 17.33, -11.96, 36.49, 12.27, 39.89,
162.8524820804596,1.15, 0.05, 0.06, 5.31, -3.17, -18.98, 36.04, 12.71, 41.35,
162.96268892288208,1.41, -0.40, -0.06, -4.46, -21.36, -6.29, 37.44, 13.62, 40.12,
163.0725543498993,0.93, -0.17, -0.05, -53.59, 0.79, -6.71, 37.78, 15.91, 39.56,
163.18207597732544,0.80, -0.04, 0.04, -55.97, -3.30, 13.37, 37.71, 18.77, 38.24,
163.29251861572266,0.90, -0.07, 0.13, -15.69, 5.86, 15.75, 37.41, 19.19, 38.48,
163.402973651886,1.21, -0.11, 0.19, -12.21, -9.83, 13.00, 37.27, 18.74, 38.40,
163.51299142837524,1.13, 0.36, -0.02, 18.49, -26.98, 12.33, 38.54, 18.32, 38.59,
163.62228727340698,1.02, 0.05, 0.04, 50.60, 28.56, -3.60, 37.96, 14.40, 38.00,
163.73206281661987,0.67, 0.03, 0.03, 35.22, 17.76, -10.56, 37.63, 13.62, 38.18,
